time,acc_x,acc_y,acc_z,gyro_x,gyro_y,gyro_z,mag_x,mag_y,mag_z,label
1537808,-0.0,0.9,0.36,-3.18,-1.8,-0.44,11.5,-27.6,7.42,2
1537820,-0.0,0.9,0.36,-2.66,-1.62,-0.31,11.5,-27.6,7.42,2
1537833,-0.0,0.9,0.36,-1.38,-1.24,-0.11,11.52,-27.54,7.71,2
1537844,-0.0,0.9,0.36,-0.78,-1.06,0.01,11.52,-27.54,7.71,2
1537856,-0.0,0.9,0.37,-0.26,-0.96,0.04,11.52,-27.54,7.71,2
1537867,-0.0,0.9,0.37,-0.23,-1.02,0.06,11.52,-27.54,7.71,2
1537879,-0.0,0.9,0.37,-0.25,-1.04,0.07,11.52,-27.54,7.71,2
1537891,-0.0,0.9,0.37,-0.27,-1.07,0.06,11.47,-27.5,7.65,2
1537902,-0.0,0.9,0.37,-0.29,-1.06,0.05,11.47,-27.5,7.65,2
1537914,-0.0,0.9,0.37,-0.4,-1.03,0.02,11.47,-27.5,7.65,2
1537925,-0.0,0.9,0.37,-0.7,-0.98,0.04,11.47,-27.5,7.65,2
1537937,-0.0,0.9,0.37,-0.76,-0.95,0.02,11.46,-27.47,7.77,2
1537948,-0.0,0.9,0.36,-0.74,-0.93,0.04,11.46,-27.47,7.77,2
1537959,-0.0,0.9,0.36,-0.38,-0.92,0.06,11.46,-27.47,7.77,2
1537971,-0.0,0.9,0.36,-0.08,-0.93,0.07,11.46,-27.47,7.77,2
1537983,-0.0,0.9,0.36,0.15,-0.96,0.09,11.41,-27.54,7.86,2
1537995,-0.0,0.9,0.36,0.19,-1.01,0.11,11.41,-27.54,7.86,2
1538007,-0.0,0.9,0.36,0.06,-1.02,0.06,11.41,-27.54,7.86,2
1538020,-0.0,0.9,0.36,0.01,-1.11,0.05,11.41,-27.54,7.86,2
1538031,-0.0,0.9,0.36,-0.07,-1.15,0.06,11.41,-27.54,7.86,2
1538042,-0.0,0.9,0.36,-0.12,-1.18,0.04,11.48,-27.51,7.86,2
1538056,-0.0,0.9,0.36,-0.16,-1.18,-0.0,11.48,-27.51,7.86,2
1538067,-0.0,0.9,0.36,-0.29,-1.17,-0.0,11.48,-27.51,7.86,2
1538078,-0.0,0.9,0.36,-0.49,-1.18,0.04,11.48,-27.51,7.86,2
1538091,-0.0,0.9,0.36,-0.87,-1.15,0.03,11.42,-27.5,8.05,2
1538102,-0.0,0.9,0.36,-0.81,-1.11,0.03,11.42,-27.5,8.05,2
1538116,-0.0,0.9,0.35,-0.25,-1.08,0.07,11.42,-27.5,8.05,2
1538128,-0.0,0.9,0.36,0.06,-1.09,0.07,11.42,-27.5,8.05,2
1538140,-0.0,0.9,0.36,0.39,-1.13,0.01,11.49,-27.58,8.2,2
1538151,-0.0,0.9,0.36,0.34,-1.26,-0.06,11.49,-27.58,8.2,2
1538162,-0.0,0.91,0.36,0.24,-1.48,-0.15,11.49,-27.58,8.2,2
1538173,-0.0,0.91,0.36,0.31,-1.51,-0.16,11.49,-27.58,8.2,2
1538186,-0.0,0.9,0.36,0.47,-1.35,-0.11,11.51,-27.63,8.43,2
1538197,-0.0,0.9,0.36,0.43,-1.3,-0.06,11.51,-27.63,8.43,2
1538210,-0.0,0.9,0.35,0.44,-1.15,-0.02,11.51,-27.63,8.43,2
1538220,-0.0,0.91,0.35,0.57,-1.15,0.01,11.51,-27.63,8.43,2
1538231,-0.0,0.91,0.35,0.81,-1.11,0.02,11.51,-27.63,8.43,2
1538244,-0.0,0.91,0.35,1.42,-1.13,0.07,11.51,-27.65,8.36,2
1538256,-0.0,0.91,0.35,1.61,-1.12,0.06,11.51,-27.65,8.36,2
1538268,-0.0,0.91,0.36,1.66,-1.06,0.06,11.51,-27.65,8.36,2
1538279,-0.0,0.9,0.36,1.59,-1.04,0.06,11.51,-27.65,8.36,2
1538290,-0.0,0.9,0.36,1.45,-1.02,0.06,11.65,-27.68,8.48,2
1538303,-0.0,0.91,0.35,1.36,-1.03,0.0,11.65,-27.68,8.48,2
1538314,-0.0,0.91,0.35,1.52,-1.01,0.04,11.65,-27.68,8.48,2
1538326,-0.0,0.91,0.36,1.68,-1.0,0.06,11.65,-27.68,8.48,2
1538339,-0.0,0.91,0.36,1.81,-0.99,0.07,11.66,-27.72,8.54,2
1538350,-0.0,0.91,0.36,1.84,-1.03,0.06,11.66,-27.72,8.54,2
1538363,-0.0,0.9,0.36,1.63,-1.08,0.04,11.66,-27.72,8.54,2
1538374,-0.0,0.9,0.36,1.41,-1.1,0.02,11.66,-27.72,8.54,2
1538385,-0.0,0.9,0.36,1.08,-1.12,0.01,11.56,-27.78,8.55,2
1538397,-0.0,0.9,0.36,0.36,-1.35,-0.07,11.56,-27.78,8.55,2
1538408,-0.0,0.91,0.36,0.0,-1.81,-0.31,11.56,-27.78,8.55,2
1538419,-0.0,0.91,0.35,-0.15,-2.05,-0.43,11.56,-27.78,8.55,2
1538432,-0.0,0.91,0.35,0.63,-1.79,-0.23,11.59,-27.85,8.43,2
1538443,-0.0,0.91,0.35,1.14,-1.64,-0.11,11.59,-27.85,8.43,2
1538454,-0.0,0.91,0.35,1.63,-1.49,-0.03,11.59,-27.85,8.43,2
1538468,-0.0,0.91,0.35,2.4,-1.3,0.06,11.59,-27.85,8.43,2
1538479,-0.0,0.91,0.36,2.56,-1.24,0.09,11.59,-27.85,8.43,2
1538490,-0.0,0.91,0.36,2.53,-1.2,0.14,11.59,-27.82,8.38,2
1538502,-0.0,0.91,0.36,2.32,-1.19,0.13,11.59,-27.82,8.38,2
1538514,-0.0,0.91,0.36,2.3,-1.21,0.18,11.59,-27.82,8.38,2
1538528,-0.0,0.91,0.36,2.18,-1.27,0.24,11.59,-27.82,8.38,2
1538539,-0.0,0.91,0.36,2.06,-1.3,0.25,11.49,-27.86,8.56,2
1538550,-0.0,0.91,0.36,1.93,-1.3,0.21,11.49,-27.86,8.56,2
1538562,0.0,0.9,0.35,1.94,-1.26,0.23,11.49,-27.86,8.56,2
1538574,-0.0,0.9,0.36,2.2,-1.24,0.19,11.49,-27.86,8.56,2
1538585,-0.01,0.9,0.36,2.32,-1.19,0.18,11.49,-27.91,8.58,2
1538597,-0.0,0.9,0.36,1.91,-1.08,0.17,11.49,-27.91,8.58,2
1538608,-0.0,0.91,0.36,1.78,-1.02,0.1,11.49,-27.91,8.58,2
1538622,-0.0,0.91,0.35,2.01,-1.02,0.1,11.49,-27.91,8.58,2
1538633,-0.0,0.91,0.35,2.28,-1.09,0.12,11.49,-27.82,8.59,2
1538644,-0.0,0.9,0.36,2.52,-1.09,0.13,11.49,-27.82,8.59,2
1538656,-0.0,0.9,0.36,2.32,-1.02,0.1,11.49,-27.82,8.59,2
1538668,-0.0,0.9,0.36,2.09,-1.06,0.13,11.49,-27.82,8.59,2
1538681,-0.0,0.9,0.36,1.63,-1.1,0.14,11.49,-27.82,8.59,2
1538693,-0.0,0.9,0.36,1.44,-1.05,0.12,11.52,-27.83,8.59,2
1538703,-0.0,0.9,0.36,1.23,-0.95,0.09,11.52,-27.83,8.59,2
1538713,-0.0,0.91,0.35,1.26,-0.96,0.1,11.52,-27.83,8.59,2
1538723,-0.0,0.91,0.36,1.63,-1.04,0.16,11.52,-27.83,8.59,2
1538736,-0.0,0.91,0.36,1.74,-1.13,0.15,11.4,-27.87,8.92,2
1538746,-0.0,0.9,0.36,1.86,-1.15,0.16,11.4,-27.87,8.92,2
1538758,-0.0,0.9,0.36,1.99,-1.15,0.13,11.4,-27.87,8.92,2
1538769,-0.0,0.9,0.36,2.13,-1.1,0.13,11.4,-27.87,8.92,2
1538782,-0.0,0.91,0.36,2.28,-1.04,0.11,11.31,-27.8,8.93,2
1538794,-0.0,0.91,0.36,2.4,-1.04,0.11,11.31,-27.8,8.93,2
1538805,-0.0,0.91,0.36,2.34,-0.97,0.09,11.31,-27.8,8.93,2
1538818,-0.0,0.91,0.36,2.0,-0.95,0.11,11.31,-27.8,8.93,2
1538829,-0.0,0.9,0.36,1.76,-1.03,0.11,11.31,-27.8,8.93,2
1538840,-0.0,0.9,0.36,1.52,-1.06,0.12,11.34,-27.87,9.0,2
1538852,-0.0,0.9,0.36,1.06,-1.01,0.03,11.34,-27.87,9.0,2
1538863,-0.0,0.9,0.36,0.99,-1.07,0.09,11.34,-27.87,9.0,2
1538875,-0.0,0.9,0.36,1.01,-1.1,0.07,11.34,-27.87,9.0,2
1538887,-0.0,0.9,0.36,1.16,-1.14,0.08,11.34,-27.95,8.86,2
1538898,-0.0,0.91,0.36,1.2,-1.15,0.09,11.34,-27.95,8.86,2
1538909,-0.0,0.91,0.36,1.31,-1.15,0.11,11.34,-27.95,8.86,2
1538923,-0.0,0.9,0.36,1.46,-1.12,0.15,11.34,-27.95,8.86,2
1538934,-0.0,0.9,0.36,1.38,-1.12,0.16,11.4,-28.06,8.94,2
1538945,-0.0,0.9,0.35,1.26,-1.1,0.12,11.4,-28.06,8.94,2
1538957,-0.0,0.9,0.36,1.36,-1.0,0.09,11.4,-28.06,8.94,2
1538969,-0.0,0.91,0.35,1.44,-1.01,0.1,11.4,-28.06,8.94,2
1538982,-0.0,0.91,0.35,2.03,-0.99,0.07,11.43,-28.15,9.14,2
1538994,-0.0,0.91,0.35,2.4,-1.03,0.06,11.43,-28.15,9.14,2
1539007,-0.0,0.9,0.36,2.72,-0.99,0.1,11.43,-28.15,9.14,2
1539018,-0.0,0.9,0.36,2.54,-1.03,0.09,11.43,-28.15,9.14,2
1539028,-0.0,0.9,0.36,2.18,-1.07,0.07,11.43,-28.15,9.14,2
1539039,-0.0,0.9,0.36,1.81,-1.09,0.09,11.32,-28.07,9.13,2
1539050,-0.0,0.9,0.36,1.22,-1.09,0.05,11.32,-28.07,9.13,2
1539061,-0.0,0.9,0.36,1.02,-1.09,0.02,11.32,-28.07,9.13,2
1539071,-0.0,0.91,0.36,0.96,-1.08,0.05,11.32,-28.07,9.13,2
1539082,-0.0,0.9,0.36,0.96,-1.07,0.06,11.26,-28.22,9.03,2
1539093,-0.0,0.9,0.36,1.04,-1.03,0.07,11.26,-28.22,9.03,2
1539104,-0.0,0.9,0.36,1.04,-1.02,0.04,11.26,-28.22,9.03,2
1539114,-0.0,0.9,0.36,1.07,-1.02,0.05,11.26,-28.22,9.03,2
1539125,-0.0,0.9,0.36,1.06,-1.03,0.06,11.26,-28.22,9.03,2
1539138,-0.0,0.91,0.35,1.13,-1.08,0.01,11.37,-28.18,9.03,2
1539150,-0.0,0.91,0.35,1.34,-1.07,-0.0,11.37,-28.18,9.03,2
1539164,-0.0,0.9,0.36,1.7,-1.08,0.05,11.37,-28.18,9.03,2
1539175,-0.0,0.9,0.36,1.75,-1.05,0.08,11.37,-28.18,9.03,2
1539186,-0.0,0.9,0.36,1.77,-1.01,0.09,11.19,-28.2,9.04,2
1539198,-0.0,0.9,0.36,1.8,-1.05,0.11,11.19,-28.2,9.04,2
1539209,-0.0,0.9,0.36,1.77,-1.01,0.1,11.19,-28.2,9.04,2
1539223,-0.0,0.9,0.36,1.66,-0.99,0.11,11.19,-28.2,9.04,2
1539234,-0.0,0.9,0.36,1.56,-0.96,0.09,11.26,-28.03,9.2,2
1539246,-0.0,0.9,0.36,1.46,-0.98,0.08,11.26,-28.03,9.2,2
1539258,-0.0,0.9,0.36,1.44,-0.97,0.12,11.26,-28.03,9.2,2
1539269,-0.0,0.9,0.36,1.42,-1.05,0.13,11.26,-28.03,9.2,2
1539283,-0.0,0.9,0.36,1.38,-1.09,0.09,11.24,-28.09,9.22,2
1539294,-0.0,0.9,0.36,1.43,-1.08,0.07,11.24,-28.09,9.22,2
1539306,-0.0,0.9,0.36,1.45,-1.08,0.03,11.24,-28.09,9.22,2
1539318,-0.0,0.9,0.35,1.7,-1.13,0.04,11.24,-28.09,9.22,2
1539331,-0.0,0.9,0.36,1.91,-1.11,0.05,11.2,-28.03,9.09,2
1539342,-0.0,0.9,0.35,2.4,-0.64,0.27,11.2,-28.03,9.09,2
1539353,-0.0,0.9,0.36,2.6,-0.38,0.36,11.2,-28.03,9.09,2
1539364,-0.0,0.9,0.36,2.67,-0.33,0.42,11.2,-28.03,9.09,2
1539378,-0.0,0.9,0.36,2.5,-0.53,0.36,11.2,-28.03,9.09,2
1539389,-0.0,0.9,0.36,2.29,-0.68,0.3,11.07,-28.01,9.2,2
1539400,-0.0,0.9,0.36,2.08,-0.81,0.28,11.07,-28.01,9.2,2
1539412,-0.0,0.9,0.36,1.65,-0.9,0.19,11.07,-28.01,9.2,2
1539424,-0.0,0.9,0.36,1.47,-0.97,0.16,11.07,-28.01,9.2,2
1539435,-0.0,0.9,0.36,1.27,-1.0,0.12,10.97,-27.95,9.0,2
1539447,-0.0,0.9,0.36,0.85,-1.07,0.07,10.97,-27.95,9.0,2
1539459,-0.0,0.9,0.36,0.59,-1.11,0.02,10.97,-27.95,9.0,2
1539472,-0.0,0.91,0.36,0.15,-1.42,-0.13,10.97,-27.95,9.0,2
1539483,-0.0,0.91,0.36,0.24,-1.43,-0.13,10.93,-28.07,8.77,2
1539495,-0.0,0.9,0.36,0.47,-1.37,-0.06,10.93,-28.07,8.77,2
1539507,-0.0,0.9,0.35,0.84,-1.18,-0.03,10.93,-28.07,8.77,2
1539519,-0.0,0.91,0.35,1.11,-1.13,-0.02,10.93,-28.07,8.77,2
1539529,-0.0,0.9,0.35,1.39,-1.11,0.01,10.93,-28.07,8.77,2
1539542,-0.0,0.91,0.36,2.0,-1.11,0.05,11.06,-28.07,8.95,2
1539552,-0.0,0.9,0.36,2.17,-1.09,0.08,11.06,-28.07,8.95,2
1539563,-0.0,0.9,0.36,2.22,-1.15,0.09,11.06,-28.07,8.95,2
1539575,-0.0,0.9,0.36,2.1,-1.18,0.1,11.06,-28.07,8.95,2
1539586,-0.0,0.9,0.36,1.96,-1.19,0.09,10.9,-28.12,9.05,2
1539598,-0.0,0.9,0.36,1.81,-1.19,0.11,10.9,-28.12,9.05,2
1539610,-0.0,0.9,0.36,1.73,-1.2,0.11,10.9,-28.12,9.05,2
1539621,-0.0,0.9,0.36,1.69,-1.11,0.12,10.9,-28.12,9.05,2
1539632,-0.0,0.9,0.35,1.55,-1.11,0.14,10.98,-28.11,9.21,2
1539644,-0.0,0.9,0.36,1.88,-1.06,0.15,10.98,-28.11,9.21,2
1539656,-0.0,0.9,0.36,1.98,-1.02,0.15,10.98,-28.11,9.21,2
1539669,-0.0,0.9,0.36,1.98,-1.09,0.1,10.98,-28.11,9.21,2
1539680,-0.0,0.9,0.36,1.98,-1.04,0.13,11.0,-28.11,9.38,2
1539692,-0.0,0.9,0.36,2.0,-0.99,0.14,11.0,-28.11,9.38,2
1539704,-0.0,0.9,0.36,1.78,-0.93,0.1,11.0,-28.11,9.38,2
1539715,-0.0,0.9,0.36,1.63,-0.98,0.1,11.0,-28.11,9.38,2
1539728,-0.0,0.9,0.36,1.52,-1.04,0.12,11.0,-28.11,9.38,2
1539740,-0.0,0.9,0.36,1.54,-1.02,0.12,11.12,-28.13,9.58,2
1539752,-0.0,0.9,0.36,1.55,-0.99,0.1,11.12,-28.13,9.58,2
1539763,-0.0,0.9,0.36,1.5,-1.05,0.07,11.12,-28.13,9.58,2
1539774,-0.0,0.9,0.36,1.49,-1.06,0.07,11.12,-28.13,9.58,2
1539785,-0.0,0.9,0.36,1.47,-1.06,0.1,11.2,-28.1,9.44,2
1539798,-0.0,0.9,0.36,1.53,-1.04,0.11,11.2,-28.1,9.44,2
1539810,-0.0,0.9,0.36,1.56,-1.04,0.1,11.2,-28.1,9.44,2
1539821,-0.0,0.9,0.36,1.58,-1.06,0.09,11.2,-28.1,9.44,2
1539834,-0.0,0.9,0.36,1.57,-1.11,0.12,11.21,-28.16,9.39,2
1539846,-0.0,0.9,0.36,1.56,-1.1,0.13,11.21,-28.16,9.39,2
1539857,-0.0,0.9,0.36,1.65,-1.08,0.09,11.21,-28.16,9.39,2
1539868,-0.0,0.9,0.36,1.74,-1.1,0.06,11.21,-28.16,9.39,2
1539880,-0.0,0.9,0.36,1.79,-1.12,0.04,11.28,-28.1,9.23,2
1539891,-0.0,0.9,0.36,1.88,-1.04,0.06,11.28,-28.1,9.23,2
1539902,-0.0,0.9,0.36,1.84,-1.01,0.05,11.28,-28.1,9.23,2
1539914,-0.0,0.9,0.36,1.85,-1.02,0.05,11.28,-28.1,9.23,2
1539927,-0.0,0.9,0.36,1.85,-0.96,0.09,11.28,-28.1,9.23,2
1539938,-0.0,0.9,0.36,1.82,-0.95,0.1,11.34,-28.16,9.41,2
1539950,-0.0,0.9,0.36,1.78,-0.94,0.05,11.34,-28.16,9.41,2
1539962,-0.0,0.9,0.36,1.91,-0.97,0.06,11.34,-28.16,9.41,2
1539974,-0.0,0.9,0.36,1.98,-1.01,0.09,11.34,-28.16,9.41,2
1539985,-0.0,0.9,0.36,1.97,-1.02,0.11,11.41,-28.08,9.18,2
1539997,-0.0,0.9,0.36,1.64,-1.04,0.1,11.41,-28.08,9.18,2
1540007,-0.0,0.9,0.36,1.41,-1.02,0.08,11.41,-28.08,9.18,2
1540018,-0.0,0.9,0.36,1.3,-1.05,0.09,11.41,-28.08,9.18,2
1540031,-0.0,0.9,0.36,1.22,-1.07,0.11,11.35,-28.12,9.19,2
1540043,-0.0,0.9,0.36,1.25,-1.09,0.1,11.35,-28.12,9.19,2
1540057,-0.0,0.9,0.36,1.38,-1.07,0.07,11.35,-28.12,9.19,2
1540068,-0.0,0.9,0.36,1.48,-1.09,0.09,11.35,-28.12,9.19,2
1540083,-0.0,0.9,0.36,1.57,-1.11,0.11,11.41,-28.07,9.17,2
1540094,-0.0,0.9,0.36,1.64,-1.1,0.12,11.41,-28.07,9.17,2
1540108,-0.0,0.9,0.36,1.89,-1.1,0.1,11.41,-28.07,9.17,2
1540119,-0.0,0.9,0.36,2.08,-1.1,0.08,11.41,-28.07,9.17,2
1540131,-0.0,0.9,0.36,2.19,-1.07,0.07,11.42,-28.05,9.24,2
1540143,-0.0,0.91,0.36,2.3,-1.11,0.13,11.42,-28.05,9.24,2
1540153,-0.0,0.91,0.36,2.38,-1.11,0.13,11.42,-28.05,9.24,2
1540164,-0.0,0.9,0.36,2.6,-1.12,0.15,11.42,-28.05,9.24,2
1540176,-0.0,0.9,0.36,3.06,-1.01,0.2,11.42,-28.05,9.24,2
1540187,-0.0,0.9,0.36,3.15,-0.94,0.21,11.45,-28.0,9.19,2
1540199,-0.0,0.9,0.36,3.17,-0.92,0.22,11.45,-28.0,9.19,2
1540211,-0.0,0.9,0.36,2.92,-0.98,0.21,11.45,-28.0,9.19,2
1540223,-0.0,0.9,0.37,2.76,-1.0,0.19,11.45,-28.0,9.19,2
1540233,-0.0,0.9,0.37,2.51,-0.99,0.13,11.46,-27.99,9.11,2
1540245,-0.0,0.9,0.37,1.81,-1.01,0.09,11.46,-27.99,9.11,2
1540257,-0.0,0.9,0.36,1.45,-0.97,0.07,11.46,-27.99,9.11,2
1540270,-0.0,0.9,0.36,1.04,-0.99,0.07,11.46,-27.99,9.11,2
1540281,-0.0,0.9,0.36,0.89,-0.99,0.05,11.43,-27.98,8.99,2
1540293,-0.0,0.9,0.36,0.87,-0.99,0.04,11.43,-27.98,8.99,2
1540304,-0.0,0.9,0.36,0.94,-1.0,0.05,11.43,-27.98,8.99,2
1540315,-0.0,0.9,0.36,0.94,-1.02,0.05,11.43,-27.98,8.99,2
1540326,-0.0,0.9,0.36,0.91,-1.0,0.07,11.43,-27.98,8.99,2
1540339,-0.0,0.9,0.36,0.81,-0.97,0.11,11.39,-28.02,8.97,2
1540351,-0.0,0.9,0.36,0.7,-0.97,0.1,11.39,-28.02,8.97,2
1540362,-0.0,0.9,0.36,0.68,-0.99,0.13,11.39,-28.02,8.97,2
1540374,-0.0,0.9,0.36,0.88,-1.08,0.15,11.39,-28.02,8.97,2
1540385,-0.0,0.9,0.36,0.96,-1.07,0.16,11.43,-28.05,9.02,2
1540398,-0.0,0.9,0.36,1.02,-1.02,0.1,11.43,-28.05,9.02,2
1540409,-0.0,0.9,0.36,0.98,-1.02,0.09,11.43,-28.05,9.02,2
1540421,-0.0,0.9,0.36,0.95,-1.04,0.07,11.43,-28.05,9.02,2
1540433,-0.0,0.9,0.36,0.8,-1.0,0.12,11.44,-28.14,8.94,2
1540444,-0.0,0.9,0.36,0.76,-1.01,0.08,11.44,-28.14,8.94,2
1540454,-0.0,0.9,0.36,0.75,-0.99,0.03,11.44,-28.14,8.94,2
1540464,-0.0,0.91,0.36,0.82,-1.0,0.05,11.44,-28.14,8.94,2
1540474,-0.0,0.9,0.36,0.9,-1.06,0.07,11.44,-28.14,8.94,2
1540487,-0.0,0.9,0.36,1.0,-1.09,0.08,11.53,-28.14,8.84,2
1540497,-0.0,0.9,0.36,0.98,-1.08,0.06,11.53,-28.14,8.84,2
1540508,-0.0,0.9,0.36,0.91,-1.08,0.03,11.53,-28.14,8.84,2
1540520,-0.0,0.9,0.36,0.62,-1.16,0.05,11.53,-28.14,8.84,2
1540531,-0.0,0.9,0.36,0.51,-1.16,0.05,11.52,-28.07,8.98,2
1540544,-0.0,0.9,0.36,0.52,-1.11,0.1,11.52,-28.07,8.98,2
1540555,-0.0,0.91,0.36,0.67,-1.04,0.08,11.52,-28.07,8.98,2
1540566,-0.0,0.91,0.35,0.91,-1.05,0.09,11.52,-28.07,8.98,2
1540581,-0.0,0.9,0.36,1.44,-1.07,0.12,11.64,-28.0,9.04,2
1540593,-0.0,0.9,0.36,1.61,-1.05,0.14,11.64,-28.0,9.04,2
1540606,-0.0,0.9,0.36,1.58,-1.07,0.08,11.64,-28.0,9.04,2
1540618,-0.0,0.9,0.36,1.46,-1.04,0.06,11.64,-28.0,9.04,2
1540631,-0.0,0.91,0.36,1.08,-1.0,0.07,11.64,-28.11,9.2,2
1540642,-0.0,0.9,0.36,0.92,-1.01,0.09,11.64,-28.11,9.2,2
1540654,-0.0,0.9,0.36,0.77,-0.96,0.07,11.64,-28.11,9.2,2
1540666,-0.0,0.9,0.36,0.66,-0.99,0.08,11.64,-28.11,9.2,2
1540678,-0.0,0.9,0.36,0.65,-1.02,0.09,11.55,-28.18,9.02,2
1540692,-0.0,0.91,0.35,0.87,-1.06,0.09,11.55,-28.18,9.02,2
1540704,-0.0,0.91,0.36,1.0,-0.97,0.07,11.55,-28.18,9.02,2
1540716,-0.0,0.91,0.36,0.88,-1.0,0.07,11.55,-28.18,9.02,2
1540727,-0.0,0.9,0.36,0.71,-0.99,0.04,11.55,-28.18,9.02,2
1540738,-0.0,0.9,0.36,0.62,-1.02,0.03,11.52,-28.09,8.98,2
1540751,-0.0,0.9,0.35,0.45,-1.04,0.03,11.52,-28.09,8.98,2
1540763,-0.0,0.91,0.35,0.5,-1.0,0.05,11.52,-28.09,8.98,2
1540774,-0.0,0.91,0.35,0.59,-0.96,0.08,11.52,-28.09,8.98,2
1540787,-0.0,0.91,0.35,1.03,-1.01,0.13,11.55,-28.17,9.08,2
1540799,-0.0,0.91,0.35,1.27,-1.06,0.1,11.55,-28.17,9.08,2
1540813,-0.0,0.9,0.36,1.56,-1.06,0.11,11.55,-28.17,9.08,2
1540824,-0.0,0.9,0.36,1.5,-1.07,0.14,11.55,-28.17,9.08,2
1540836,-0.0,0.9,0.36,1.15,-1.12,0.15,11.56,-28.1,9.14,2
1540847,-0.0,0.91,0.36,0.9,-1.14,0.13,11.56,-28.1,9.14,2
1540859,-0.0,0.91,0.36,0.62,-1.13,0.11,11.56,-28.1,9.14,2
1540872,-0.0,0.91,0.35,0.42,-1.08,0.14,11.56,-28.1,9.14,2
1540883,-0.0,0.91,0.35,0.49,-1.08,0.16,11.53,-28.02,9.22,2
1540895,-0.0,0.91,0.35,0.58,-1.13,0.18,11.53,-28.02,9.22,2
1540906,-0.0,0.91,0.35,0.93,-1.04,0.16,11.53,-28.02,9.22,2
1540918,-0.0,0.91,0.35,1.09,-1.05,0.14,11.53,-28.02,9.22,2
1540929,-0.0,0.91,0.35,1.16,-1.06,0.12,11.49,-28.0,9.36,2
1540941,-0.0,0.91,0.36,1.19,-1.06,0.11,11.49,-28.0,9.36,2
1540952,-0.0,0.91,0.36,1.06,-1.03,0.07,11.49,-28.0,9.36,2
1540965,-0.0,0.91,0.36,0.75,-1.07,0.11,11.49,-28.0,9.36,2
1540976,-0.0,0.91,0.35,0.58,-1.09,0.06,11.49,-28.0,9.36,2
1540987,-0.0,0.91,0.35,0.48,-1.09,0.03,11.52,-28.0,9.42,2
1541001,-0.0,0.91,0.35,0.48,-0.98,0.03,11.52,-28.0,9.42,2
1541013,-0.0,0.91,0.35,0.59,-0.97,0.06,11.52,-28.0,9.42,2
1541023,-0.0,0.91,0.35,0.75,-0.94,0.1,11.52,-28.0,9.42,2
1541036,-0.0,0.91,0.35,0.95,-0.93,0.13,11.63,-27.96,9.35,2
1541046,-0.0,0.91,0.35,0.94,-0.98,0.11,11.63,-27.96,9.35,2
1541056,-0.0,0.91,0.35,0.87,-0.98,0.07,11.63,-27.96,9.35,2
1541066,-0.0,0.91,0.35,0.83,-1.02,0.07,11.63,-27.96,9.35,2
1541079,-0.0,0.91,0.35,0.85,-1.03,0.1,11.54,-27.97,9.43,2
1541090,-0.0,0.91,0.35,0.89,-1.03,0.12,11.54,-27.97,9.43,2
1541104,-0.0,0.91,0.35,0.98,-1.0,0.11,11.54,-27.97,9.43,2
1541116,-0.0,0.91,0.35,1.04,-1.01,0.12,11.54,-27.97,9.43,2
1541129,-0.0,0.91,0.35,1.07,-1.01,0.09,11.47,-27.97,9.43,2
1541140,-0.0,0.91,0.35,1.03,-1.0,0.1,11.47,-27.97,9.43,2
1541152,-0.0,0.91,0.35,0.98,-1.01,0.07,11.47,-27.97,9.43,2
1541164,-0.0,0.91,0.35,0.73,-1.01,0.03,11.47,-27.97,9.43,2
1541176,-0.0,0.91,0.35,0.66,-1.03,0.03,11.47,-27.97,9.43,2
1541186,-0.0,0.91,0.35,0.66,-1.1,0.02,11.49,-28.04,9.5,2
1541198,-0.0,0.91,0.35,0.77,-1.12,0.1,11.49,-28.04,9.5,2
1541210,-0.0,0.91,0.35,0.8,-1.07,0.1,11.49,-28.04,9.5,2
1541222,-0.0,0.91,0.35,0.74,-1.08,0.16,11.49,-28.04,9.5,2
1541234,-0.0,0.91,0.35,0.72,-1.09,0.15,11.57,-27.95,9.49,2
1541246,-0.0,0.91,0.35,0.73,-1.1,0.12,11.57,-27.95,9.49,2
1541257,-0.0,0.91,0.35,0.92,-1.06,0.11,11.57,-27.95,9.49,2
1541268,-0.0,0.91,0.35,1.01,-1.12,0.11,11.57,-27.95,9.49,2
1541279,-0.0,0.91,0.35,1.1,-1.18,0.13,11.63,-27.96,9.51,2
1541292,-0.0,0.91,0.35,1.12,-1.17,0.15,11.63,-27.96,9.51,2
1541304,-0.0,0.91,0.35,1.03,-1.15,0.12,11.63,-27.96,9.51,2
1541316,-0.0,0.91,0.35,0.92,-1.1,0.13,11.63,-27.96,9.51,2
1541328,-0.0,0.91,0.35,0.86,-1.03,0.17,11.62,-28.01,9.51,2
1541340,-0.0,0.91,0.35,0.89,-1.03,0.2,11.62,-28.01,9.51,2
1541353,-0.0,0.91,0.35,1.07,-1.05,0.13,11.62,-28.01,9.51,2
1541365,-0.0,0.91,0.35,1.09,-1.06,0.11,11.62,-28.01,9.51,2
1541379,-0.0,0.91,0.35,0.86,-1.06,0.07,11.63,-28.0,9.45,2
1541391,-0.0,0.91,0.35,0.65,-1.1,0.07,11.63,-28.0,9.45,2
1541404,-0.0,0.91,0.35,0.06,-1.11,0.09,11.63,-28.0,9.45,2
1541416,-0.0,0.91,0.35,-0.14,-1.11,0.1,11.63,-28.0,9.45,2
1541430,-0.0,0.91,0.35,-0.02,-1.22,0.06,11.7,-27.95,9.47,2
1541440,-0.0,0.91,0.35,0.04,-1.4,-0.01,11.7,-27.95,9.47,2
1541450,-0.0,0.91,0.34,0.03,-1.59,-0.14,11.7,-27.95,9.47,2
1541461,-0.0,0.91,0.34,0.2,-1.61,-0.11,11.7,-27.95,9.47,2
1541473,-0.0,0.91,0.34,0.58,-1.43,-0.01,11.7,-27.95,9.47,2
1541484,-0.0,0.91,0.34,0.68,-1.34,0.04,11.78,-27.98,9.67,2
1541497,-0.0,0.91,0.34,0.82,-1.22,-0.01,11.78,-27.98,9.67,2
1541508,-0.0,0.91,0.34,0.88,-1.2,-0.03,11.78,-27.98,9.67,2
1541520,-0.0,0.91,0.34,0.9,-1.13,-0.01,11.78,-27.98,9.67,2
1541533,-0.0,0.91,0.35,0.65,-1.42,-0.13,11.77,-28.02,9.6,2
1541545,-0.0,0.91,0.35,0.29,-1.79,-0.29,11.77,-28.02,9.6,2
1541555,-0.0,0.91,0.35,-0.15,-2.12,-0.44,11.77,-28.02,9.6,2
1541566,-0.0,0.91,0.35,-0.54,-2.13,-0.39,11.77,-28.02,9.6,2
1541578,-0.0,0.91,0.34,-0.61,-2.05,-0.33,11.73,-28.0,9.59,2
1541589,-0.0,0.91,0.34,-0.7,-2.08,-0.34,11.73,-28.0,9.59,2
1541602,-0.0,0.91,0.34,-0.82,-2.23,-0.44,11.73,-28.0,9.59,2
1541612,-0.0,0.91,0.34,-0.7,-2.3,-0.45,11.73,-28.0,9.59,2
1541623,-0.0,0.91,0.34,-0.36,-2.12,-0.36,11.73,-28.0,9.59,2
1541636,-0.0,0.91,0.34,0.3,-1.66,-0.11,11.69,-28.01,9.76,2
1541647,-0.0,0.91,0.34,0.51,-1.49,-0.09,11.69,-28.01,9.76,2
1541657,-0.0,0.91,0.34,0.62,-1.33,-0.07,11.69,-28.01,9.76,2
1541670,-0.0,0.91,0.34,0.72,-1.24,0.02,11.69,-28.01,9.76,2
1541681,-0.0,0.91,0.34,0.79,-1.19,0.02,11.62,-28.04,9.66,2
1541693,-0.0,0.91,0.34,0.8,-1.13,0.03,11.62,-28.04,9.66,2
1541705,-0.0,0.91,0.34,0.75,-1.1,0.06,11.62,-28.04,9.66,2
1541717,-0.0,0.91,0.34,0.72,-1.1,0.08,11.62,-28.04,9.66,2
1541727,-0.0,0.91,0.34,0.7,-1.05,0.11,11.58,-28.09,9.64,2
1541739,-0.0,0.91,0.34,0.71,-1.05,0.13,11.58,-28.09,9.64,2
1541751,-0.0,0.91,0.34,0.74,-1.02,0.11,11.58,-28.09,9.64,2
1541763,-0.0,0.91,0.34,0.86,-1.04,0.12,11.58,-28.09,9.64,2
1541774,-0.0,0.91,0.34,0.86,-1.03,0.16,11.58,-28.09,9.64,2
1541785,-0.0,0.91,0.34,0.8,-1.02,0.16,11.53,-27.97,9.69,2
1541798,-0.0,0.91,0.34,0.73,-1.0,0.11,11.53,-27.97,9.69,2
1541809,-0.0,0.91,0.34,0.74,-0.99,0.11,11.53,-27.97,9.69,2
1541821,-0.0,0.91,0.34,0.78,-1.0,0.13,11.53,-27.97,9.69,2
1541832,-0.0,0.91,0.34,0.97,-1.04,0.17,11.49,-27.94,9.9,2
1541843,-0.0,0.91,0.34,1.04,-1.05,0.16,11.49,-27.94,9.9,2
1541855,-0.0,0.91,0.34,1.1,-1.01,0.15,11.49,-27.94,9.9,2
1541868,-0.0,0.91,0.34,1.2,-1.08,0.18,11.49,-27.94,9.9,2
1541879,-0.0,0.91,0.34,1.14,-1.06,0.19,11.56,-27.93,9.83,2
1541891,-0.0,0.91,0.34,1.14,-1.06,0.22,11.56,-27.93,9.83,2
1541903,-0.0,0.91,0.34,1.08,-1.02,0.15,11.56,-27.93,9.83,2
1541915,-0.0,0.91,0.34,1.04,-1.04,0.13,11.56,-27.93,9.83,2
1541929,-0.0,0.91,0.34,0.91,-1.02,0.1,11.53,-27.94,9.81,2
1541940,-0.0,0.91,0.34,0.85,-1.02,0.13,11.53,-27.94,9.81,2
1541954,-0.0,0.91,0.34,0.81,-1.06,0.13,11.53,-27.94,9.81,2
1541966,-0.0,0.91,0.34,0.77,-1.07,0.14,11.53,-27.94,9.81,2
1541976,-0.0,0.91,0.34,0.77,-1.11,0.15,11.64,-28.07,9.83,2
1541988,-0.0,0.91,0.34,0.59,-1.76,-0.15,11.64,-28.07,9.83,2
1542000,-0.0,0.91,0.33,0.47,-1.83,-0.24,11.64,-28.07,9.83,2
1542013,-0.0,0.91,0.34,0.46,-1.63,-0.13,11.64,-28.07,9.83,2
1542024,-0.0,0.91,0.33,0.42,-1.51,-0.06,11.64,-28.07,9.83,2
1542035,-0.0,0.91,0.33,0.42,-1.38,-0.02,11.56,-28.11,9.9,2
1542048,-0.0,0.91,0.33,0.61,-1.21,0.01,11.56,-28.11,9.9,2
1542060,-0.0,0.91,0.33,0.84,-1.19,0.05,11.56,-28.11,9.9,2
1542072,-0.0,0.91,0.33,1.3,-1.16,0.08,11.56,-28.11,9.9,2
1542084,-0.0,0.91,0.33,1.43,-1.15,0.09,11.67,-28.1,9.79,2
1542096,-0.0,0.91,0.33,1.49,-1.14,0.07,11.67,-28.1,9.79,2
1542107,-0.0,0.91,0.33,1.26,-1.13,0.07,11.67,-28.1,9.79,2
1542118,-0.0,0.91,0.33,1.16,-1.11,0.09,11.67,-28.1,9.79,2
1542129,-0.0,0.91,0.33,1.04,-1.12,0.11,11.77,-28.11,9.78,2
1542142,-0.0,0.91,0.33,0.87,-1.09,0.1,11.77,-28.11,9.78,2
1542152,-0.0,0.91,0.33,0.81,-1.03,0.09,11.77,-28.11,9.78,2
1542164,-0.0,0.91,0.33,0.85,-1.02,0.11,11.77,-28.11,9.78,2
1542178,-0.0,0.91,0.33,0.86,-1.04,0.06,11.71,-28.28,10.13,2
1542190,-0.0,0.91,0.33,0.9,-1.04,0.06,11.71,-28.28,10.13,2
1542203,-0.0,0.91,0.33,0.99,-0.99,0.09,11.71,-28.28,10.13,2
1542215,-0.0,0.92,0.33,1.05,-1.01,0.09,11.71,-28.28,10.13,2
1542226,-0.0,0.91,0.33,1.09,-1.02,0.09,11.79,-28.22,10.15,2
1542238,-0.0,0.91,0.33,1.18,-1.02,0.1,11.79,-28.22,10.15,2
1542250,-0.0,0.91,0.33,1.12,-1.01,0.11,11.79,-28.22,10.15,2
1542263,-0.0,0.91,0.33,0.87,-1.0,0.14,11.79,-28.22,10.15,2
1542275,-0.0,0.91,0.33,0.77,-1.02,0.15,11.79,-28.22,10.15,2
1542285,-0.0,0.91,0.33,0.79,-1.06,0.14,11.83,-28.24,10.14,2
1542297,-0.0,0.91,0.33,0.9,-1.07,0.05,11.83,-28.24,10.14,2
1542309,-0.0,0.91,0.33,1.0,-1.13,0.08,11.83,-28.24,10.14,2
1542322,-0.0,0.91,0.33,0.97,-1.2,0.03,11.83,-28.24,10.14,2
1542333,-0.0,0.91,0.33,0.88,-1.2,0.03,11.84,-28.24,10.18,2
1542345,-0.0,0.91,0.33,0.75,-1.18,0.05,11.84,-28.24,10.18,2
1542356,-0.0,0.91,0.33,0.55,-1.14,0.06,11.84,-28.24,10.18,2
1542367,-0.0,0.91,0.33,0.46,-1.11,0.06,11.84,-28.24,10.18,2
1542378,-0.0,0.91,0.33,0.48,-1.11,0.07,11.89,-28.4,10.33,2
1542390,-0.0,0.91,0.33,0.6,-1.14,0.1,11.89,-28.4,10.33,2
1542401,-0.0,0.92,0.33,0.62,-1.12,0.08,11.89,-28.4,10.33,2
1542413,-0.0,0.92,0.33,0.67,-1.13,0.06,11.89,-28.4,10.33,2
1542428,-0.0,0.92,0.33,0.71,-1.15,0.1,11.83,-28.47,10.34,2
1542439,-0.0,0.91,0.33,0.7,-1.14,0.1,11.83,-28.47,10.34,2
1542450,-0.0,0.92,0.33,0.63,-1.05,0.06,11.83,-28.47,10.34,2
1542461,-0.0,0.92,0.33,0.64,-1.05,0.09,11.83,-28.47,10.34,2
1542473,-0.0,0.92,0.33,0.7,-1.06,0.08,11.83,-28.47,10.34,2
1542485,-0.0,0.91,0.33,0.67,-1.04,0.13,11.78,-28.46,10.28,2
1542496,-0.0,0.91,0.33,0.56,-1.07,0.09,11.78,-28.46,10.28,2
1542508,-0.0,0.92,0.33,0.4,-1.03,0.08,11.78,-28.46,10.28,2
1542521,-0.0,0.92,0.33,0.25,-1.05,0.11,11.78,-28.46,10.28,2
1542532,-0.0,0.92,0.33,0.19,-1.06,0.14,11.69,-28.53,10.25,2
1542544,-0.0,0.92,0.33,0.07,-1.05,0.12,11.69,-28.53,10.25,2
1542555,-0.0,0.92,0.33,-0.21,-1.03,0.05,11.69,-28.53,10.25,2
1542567,-0.0,0.92,0.32,-0.21,-0.98,0.04,11.69,-28.53,10.25,2
1542579,-0.0,0.92,0.32,0.03,-0.99,0.07,11.66,-28.5,10.17,2
1542590,-0.0,0.92,0.32,0.19,-1.0,0.07,11.66,-28.5,10.17,2
1542602,-0.0,0.92,0.32,0.3,-1.0,0.05,11.66,-28.5,10.17,2
1542615,-0.0,0.92,0.32,0.48,-1.07,0.08,11.66,-28.5,10.17,2
1542626,-0.0,0.92,0.32,0.54,-1.08,0.1,11.59,-28.45,9.98,2
1542638,-0.0,0.92,0.32,0.61,-1.08,0.11,11.59,-28.45,9.98,2
1542649,-0.0,0.92,0.32,0.83,-1.06,0.14,11.59,-28.45,9.98,2
1542661,-0.0,0.92,0.32,0.92,-1.03,0.13,11.59,-28.45,9.98,2
1542674,-0.0,0.92,0.32,1.06,-1.08,0.13,11.59,-28.45,9.98,2
1542685,-0.0,0.92,0.32,1.17,-1.07,0.13,11.66,-28.34,10.11,2
1542697,-0.0,0.92,0.32,1.21,-1.04,0.11,11.66,-28.34,10.11,2
1542708,-0.0,0.92,0.32,1.14,-1.03,0.11,11.66,-28.34,10.11,2
1542719,-0.0,0.92,0.32,1.08,-1.03,0.11,11.66,-28.34,10.11,2
1542730,-0.0,0.92,0.32,0.99,-1.05,0.13,11.68,-28.34,10.13,2
1542743,-0.0,0.92,0.32,0.7,-0.99,0.12,11.68,-28.34,10.13,2
1542753,-0.0,0.92,0.32,0.58,-1.0,0.11,11.68,-28.34,10.13,2
1542765,-0.0,0.92,0.32,0.52,-1.02,0.11,11.68,-28.34,10.13,2
1542776,-0.0,0.92,0.32,0.51,-1.05,0.13,11.58,-28.35,10.31,2
1542787,-0.0,0.92,0.32,0.49,-1.06,0.11,11.58,-28.35,10.31,2
1542799,-0.0,0.92,0.32,0.38,-1.07,0.07,11.58,-28.35,10.31,2
1542811,-0.0,0.92,0.32,0.16,-1.09,0.12,11.58,-28.35,10.31,2
1542822,-0.0,0.92,0.32,0.18,-1.13,0.14,11.58,-28.35,10.31,2
1542833,-0.0,0.92,0.32,0.25,-1.15,0.14,11.64,-28.29,10.54,2
1542845,-0.0,0.92,0.32,0.35,-1.1,0.12,11.64,-28.29,10.54,2
1542856,-0.0,0.92,0.32,0.42,-1.15,0.15,11.64,-28.29,10.54,2
1542868,-0.0,0.92,0.32,0.49,-1.17,0.14,11.64,-28.29,10.54,2
1542880,-0.0,0.92,0.32,0.64,-1.18,0.15,11.76,-28.33,10.57,2
1542891,-0.0,0.92,0.32,0.71,-1.15,0.14,11.76,-28.33,10.57,2
1542903,-0.0,0.92,0.32,0.69,-1.12,0.12,11.76,-28.33,10.57,2
1542916,-0.0,0.92,0.32,0.47,-1.11,0.17,11.76,-28.33,10.57,2
1542927,-0.0,0.92,0.32,0.26,-1.11,0.14,11.72,-28.29,10.61,2
1542939,-0.0,0.92,0.32,-0.04,-1.15,0.13,11.72,-28.29,10.61,2
1542951,-0.0,0.92,0.32,-0.41,-1.18,0.02,11.72,-28.29,10.61,2
1542962,-0.0,0.92,0.32,-0.43,-1.19,0.04,11.72,-28.29,10.61,2
1542973,-0.0,0.92,0.31,-0.39,-1.25,0.04,11.72,-28.29,10.61,2
1542986,-0.0,0.92,0.31,-0.08,-1.56,-0.1,11.78,-28.22,10.45,2
1542998,-0.0,0.92,0.31,0.11,-1.66,-0.2,11.78,-28.22,10.45,2
1543009,-0.0,0.92,0.31,0.59,-1.48,-0.14,11.78,-28.22,10.45,2
1543020,-0.0,0.92,0.31,0.85,-1.42,-0.1,11.78,-28.22,10.45,2
1543031,-0.0,0.92,0.31,1.11,-1.37,-0.04,11.7,-28.24,10.36,2
1543045,-0.0,0.92,0.31,1.4,-1.28,0.05,11.7,-28.24,10.36,2
1543056,-0.0,0.92,0.31,1.46,-1.23,0.09,11.7,-28.24,10.36,2
1543070,-0.0,0.92,0.31,1.51,-1.18,0.1,11.7,-28.24,10.36,2
1543081,-0.0,0.92,0.31,1.49,-1.15,0.12,11.67,-28.28,10.31,2
1543093,-0.0,0.92,0.32,1.43,-1.14,0.12,11.67,-28.28,10.31,2
1543105,-0.0,0.92,0.31,1.19,-1.15,0.13,11.67,-28.28,10.31,2
1543116,-0.0,0.92,0.31,1.12,-1.11,0.14,11.67,-28.28,10.31,2
1543127,-0.0,0.92,0.31,1.09,-1.08,0.16,11.7,-28.27,10.33,2
1543139,-0.0,0.92,0.31,1.24,-1.1,0.19,11.7,-28.27,10.33,2
1543151,-0.0,0.92,0.31,1.35,-1.06,0.14,11.7,-28.27,10.33,2
1543161,-0.0,0.92,0.31,1.41,-1.04,0.13,11.7,-28.27,10.33,2
1543175,-0.0,0.92,0.31,1.55,-1.06,0.18,11.77,-28.24,10.47,2
1543187,-0.0,0.92,0.31,1.69,-1.06,0.19,11.77,-28.24,10.47,2
1543198,-0.0,0.92,0.31,1.78,-1.04,0.15,11.77,-28.24,10.47,2
1543209,-0.0,0.92,0.32,1.75,-1.04,0.13,11.77,-28.24,10.47,2
1543220,-0.0,0.92,0.32,1.65,-1.03,0.1,11.77,-28.24,10.47,2
1543233,-0.0,0.92,0.31,1.53,-1.06,0.11,11.71,-28.23,10.66,2
1543245,-0.0,0.92,0.31,1.56,-1.08,0.08,11.71,-28.23,10.66,2
1543258,-0.0,0.92,0.31,1.64,-1.12,0.04,11.71,-28.23,10.66,2
1543269,-0.0,0.92,0.31,1.62,-1.12,0.03,11.71,-28.23,10.66,2
1543280,-0.0,0.92,0.31,1.53,-1.13,0.02,11.71,-28.29,10.73,2
1543294,-0.0,0.92,0.31,1.43,-1.06,0.07,11.71,-28.29,10.73,2
1543305,-0.0,0.92,0.31,1.41,-1.06,0.06,11.71,-28.29,10.73,2
1543318,-0.0,0.92,0.31,1.49,-1.06,0.08,11.71,-28.29,10.73,2
1543330,-0.0,0.92,0.31,1.51,-1.06,0.1,11.68,-28.28,10.75,2
1543342,-0.0,0.92,0.31,1.54,-1.03,0.13,11.68,-28.28,10.75,2
1543353,-0.0,0.92,0.31,1.46,-1.04,0.16,11.68,-28.28,10.75,2
1543365,-0.0,0.92,0.31,1.4,-1.05,0.15,11.68,-28.28,10.75,2
1543376,-0.0,0.92,0.31,1.4,-1.05,0.14,11.72,-28.34,10.78,2
1543388,-0.0,0.92,0.31,1.4,-1.1,0.15,11.72,-28.34,10.78,2
1543400,-0.0,0.92,0.31,1.42,-1.07,0.11,11.72,-28.34,10.78,2
1543414,-0.0,0.92,0.31,1.68,-1.13,0.1,11.72,-28.34,10.78,2
1543425,-0.0,0.92,0.31,1.79,-1.12,0.13,11.74,-28.17,10.75,2
1543436,-0.0,0.92,0.31,1.88,-1.13,0.16,11.74,-28.17,10.75,2
1543448,-0.0,0.92,0.31,1.84,-1.09,0.17,11.74,-28.17,10.75,2
1543460,-0.0,0.92,0.32,1.72,-1.09,0.17,11.74,-28.17,10.75,2
1543472,-0.0,0.92,0.32,1.41,-1.09,0.13,11.74,-28.17,10.75,2
1543484,-0.0,0.92,0.32,1.17,-1.1,0.13,11.74,-28.2,10.87,2
1543496,-0.0,0.92,0.32,0.95,-1.1,0.11,11.74,-28.2,10.87,2
1543508,-0.0,0.92,0.32,0.49,-1.1,0.11,11.74,-28.2,10.87,2
1543520,-0.0,0.92,0.32,0.29,-1.14,0.08,11.74,-28.2,10.87,2
1543530,-0.0,0.92,0.31,0.13,-1.22,0.04,11.75,-28.22,10.92,2
1543542,-0.0,0.92,0.31,0.06,-1.67,-0.16,11.75,-28.22,10.92,2
1543553,-0.0,0.92,0.31,0.2,-1.84,-0.22,11.75,-28.22,10.92,2
1543563,-0.0,0.92,0.31,0.39,-1.84,-0.2,11.75,-28.22,10.92,2
1543573,-0.0,0.92,0.31,0.62,-1.78,-0.15,11.75,-28.22,10.92,2
1543586,-0.0,0.92,0.31,0.86,-1.74,-0.11,11.75,-28.25,10.87,2
1543598,-0.0,0.92,0.31,0.82,-1.79,-0.14,11.75,-28.25,10.87,2
1543608,-0.0,0.92,0.31,0.85,-1.93,-0.19,11.75,-28.25,10.87,2
1543620,-0.0,0.92,0.31,0.68,-2.11,-0.23,11.75,-28.25,10.87,2
1543631,-0.0,0.92,0.31,0.57,-2.13,-0.22,11.84,-28.3,10.92,2
1543642,-0.0,0.92,0.31,0.51,-2.12,-0.21,11.84,-28.3,10.92,2
1543655,-0.0,0.92,0.31,0.53,-1.87,-0.2,11.84,-28.3,10.92,2
1543665,-0.0,0.92,0.31,0.63,-1.73,-0.16,11.84,-28.3,10.92,2
1543676,-0.0,0.92,0.31,0.68,-1.64,-0.1,12.04,-28.29,10.98,2
1543687,-0.0,0.92,0.31,0.72,-1.57,-0.07,12.04,-28.29,10.98,2
1543698,-0.0,0.92,0.31,0.7,-1.54,-0.1,12.04,-28.29,10.98,2
1543710,-0.0,0.92,0.31,0.76,-1.51,-0.06,12.04,-28.29,10.98,2
1543724,-0.0,0.92,0.31,0.93,-1.42,0.05,11.99,-28.2,10.85,2
1543735,-0.0,0.92,0.31,1.09,-1.34,0.06,11.99,-28.2,10.85,2
1543747,-0.0,0.92,0.31,1.36,-1.22,0.05,11.99,-28.2,10.85,2
1543758,-0.0,0.92,0.31,1.46,-1.2,0.08,11.99,-28.2,10.85,2
1543770,-0.0,0.92,0.31,1.5,-1.19,0.06,11.99,-28.2,10.85,2
1543783,-0.0,0.92,0.31,1.55,-1.16,0.12,12.05,-28.1,11.02,2
1543794,-0.0,0.92,0.31,1.54,-1.14,0.11,12.05,-28.1,11.02,2
1543807,-0.0,0.92,0.31,1.57,-1.15,0.12,12.05,-28.1,11.02,2
1543818,-0.0,0.92,0.31,1.49,-1.14,0.11,12.05,-28.1,11.02,2
1543829,-0.0,0.92,0.31,1.42,-1.13,0.13,11.9,-28.13,11.21,2
1543842,-0.0,0.92,0.31,1.34,-1.05,0.09,11.9,-28.13,11.21,2
1543852,-0.0,0.92,0.31,1.3,-1.08,0.11,11.9,-28.13,11.21,2
1543864,-0.0,0.92,0.31,1.28,-1.09,0.12,11.9,-28.13,11.21,2
1543875,-0.0,0.92,0.31,1.28,-1.08,0.1,11.87,-28.27,11.11,2
1543886,-0.0,0.92,0.31,1.24,-1.09,0.11,11.87,-28.27,11.11,2
1543898,-0.0,0.92,0.31,1.2,-1.09,0.08,11.87,-28.27,11.11,2
1543908,-0.0,0.92,0.31,1.19,-1.1,0.08,11.87,-28.27,11.11,2
1543921,-0.0,0.92,0.31,1.2,-1.15,0.08,11.87,-28.27,11.11,2
1543932,-0.0,0.92,0.31,1.27,-1.08,0.06,11.85,-28.31,10.76,2
1543945,-0.0,0.92,0.31,1.38,-1.05,0.04,11.85,-28.31,10.76,2
1543955,-0.0,0.92,0.31,1.41,-1.05,0.04,11.85,-28.31,10.76,2
1543967,-0.0,0.92,0.31,1.44,-1.03,0.06,11.85,-28.31,10.76,2
1543979,-0.0,0.92,0.31,1.42,-1.01,0.08,11.87,-28.3,10.95,2
1543990,-0.0,0.92,0.31,1.35,-0.99,0.06,11.87,-28.3,10.95,2
1544002,-0.0,0.92,0.31,1.21,-0.99,0.06,11.87,-28.3,10.95,2
1544015,-0.0,0.92,0.31,1.12,-0.99,0.09,11.87,-28.3,10.95,2
1544026,-0.0,0.92,0.31,1.1,-0.98,0.1,11.82,-28.25,10.99,2
1544038,-0.0,0.92,0.31,1.06,-0.96,0.12,11.82,-28.25,10.99,2
1544049,-0.0,0.92,0.31,0.94,-0.98,0.09,11.82,-28.25,10.99,2
1544061,-0.0,0.92,0.31,0.87,-1.04,0.07,11.82,-28.25,10.99,2
1544075,-0.0,0.92,0.31,0.79,-1.04,0.01,11.83,-28.3,11.08,2
1544085,-0.0,0.92,0.31,0.79,-1.1,0.06,11.83,-28.3,11.08,2
1544095,-0.0,0.92,0.31,0.78,-1.1,0.08,11.83,-28.3,11.08,2
1544105,-0.0,0.92,0.31,0.82,-1.11,0.07,11.83,-28.3,11.08,2
1544118,-0.0,0.92,0.31,0.94,-1.13,0.03,11.83,-28.3,11.08,2
1544129,-0.0,0.92,0.31,0.98,-1.14,0.04,11.77,-28.35,11.22,2
1544141,-0.0,0.92,0.31,1.02,-1.1,0.03,11.77,-28.35,11.22,2
1544152,-0.0,0.92,0.31,0.99,-1.08,0.02,11.77,-28.35,11.22,2
1544164,-0.0,0.92,0.31,1.0,-1.1,0.04,11.77,-28.35,11.22,2
1544175,-0.0,0.92,0.31,1.0,-1.11,0.07,11.85,-28.31,11.3,2
1544187,-0.0,0.92,0.31,0.93,-1.12,0.09,11.85,-28.31,11.3,2
1544199,-0.0,0.92,0.31,0.82,-1.09,0.06,11.85,-28.31,11.3,2
1544209,-0.0,0.92,0.31,0.71,-1.06,0.07,11.85,-28.31,11.3,2
1544219,-0.0,0.92,0.31,0.59,-1.09,0.1,11.85,-28.31,11.3,2
1544231,-0.0,0.92,0.3,0.62,-1.09,0.12,11.97,-28.27,11.32,2
1544243,-0.0,0.92,0.3,0.73,-1.06,0.13,11.97,-28.27,11.32,2
1544255,-0.0,0.92,0.3,1.04,-0.98,0.12,11.97,-28.27,11.32,2
1544267,-0.0,0.92,0.31,1.11,-0.95,0.14,11.97,-28.27,11.32,2
1544278,-0.0,0.92,0.31,1.09,-0.96,0.15,11.89,-28.27,11.39,2
1544289,-0.0,0.92,0.31,0.83,-0.9,0.12,11.89,-28.27,11.39,2
1544301,-0.0,0.92,0.3,0.71,-0.82,0.15,11.89,-28.27,11.39,2
1544314,-0.0,0.92,0.3,0.74,-0.77,0.19,11.89,-28.27,11.39,2
1544326,-0.0,0.92,0.3,0.79,-0.82,0.2,11.85,-28.15,11.29,2
1544337,-0.0,0.92,0.3,0.82,-0.81,0.2,11.85,-28.15,11.29,2
1544349,-0.0,0.92,0.3,0.81,-0.79,0.19,11.85,-28.15,11.29,2
1544361,-0.0,0.92,0.3,0.83,-0.83,0.15,11.85,-28.15,11.29,2
1544375,-0.0,0.92,0.3,0.91,-0.86,0.13,11.87,-28.08,11.28,2
1544386,-0.0,0.92,0.3,0.94,-0.9,0.14,11.87,-28.08,11.28,2
1544398,-0.0,0.92,0.3,0.9,-0.9,0.08,11.87,-28.08,11.28,2
1544410,-0.0,0.92,0.3,0.88,-0.96,0.09,11.87,-28.08,11.28,2
1544422,-0.0,0.92,0.3,0.87,-1.0,0.11,11.87,-28.08,11.28,2
1544433,-0.0,0.92,0.3,0.77,-1.0,0.11,11.61,-28.07,11.25,2
1544444,-0.0,0.92,0.3,0.53,-0.97,0.09,11.61,-28.07,11.25,2
1544456,-0.0,0.92,0.3,0.46,-0.99,0.08,11.61,-28.07,11.25,2
1544470,-0.0,0.93,0.3,0.44,-1.05,0.07,11.61,-28.07,11.25,2
1544481,-0.0,0.93,0.3,0.52,-1.06,0.1,11.4,-27.98,11.36,2
1544491,-0.0,0.93,0.3,0.56,-1.0,0.12,11.4,-27.98,11.36,2
1544501,-0.0,0.93,0.3,0.63,-0.88,0.13,11.4,-27.98,11.36,2
1544512,-0.0,0.93,0.3,0.71,-0.76,0.2,11.4,-27.98,11.36,2
1544523,-0.0,0.93,0.3,0.73,-0.72,0.22,11.32,-27.96,11.08,2
1544535,-0.0,0.93,0.3,0.91,-0.54,0.29,11.32,-27.96,11.08,2
1544546,-0.0,0.93,0.3,1.26,-0.02,0.4,11.32,-27.96,11.08,2
1544557,-0.0,0.93,0.3,1.28,-0.07,0.39,11.32,-27.96,11.08,2
1544569,-0.0,0.93,0.3,1.22,-0.19,0.39,11.32,-27.96,11.08,2
1544581,-0.0,0.92,0.3,1.24,-0.45,0.36,11.35,-28.06,11.1,2
1544593,-0.0,0.92,0.3,1.22,-0.53,0.33,11.35,-28.06,11.1,2
1544606,-0.0,0.93,0.3,1.17,-0.7,0.3,11.35,-28.06,11.1,2
1544617,-0.0,0.92,0.31,1.18,-0.79,0.27,11.35,-28.06,11.1,2
1544628,-0.0,0.93,0.3,1.03,-0.87,0.23,11.42,-27.98,11.07,2
1544640,-0.0,0.93,0.3,1.09,-0.96,0.17,11.42,-27.98,11.07,2
1544651,-0.0,0.93,0.3,1.21,-1.03,0.19,11.42,-27.98,11.07,2
1544663,-0.0,0.93,0.3,1.39,-1.08,0.16,11.42,-27.98,11.07,2
1544676,-0.0,0.92,0.3,1.71,-1.11,0.16,11.37,-28.12,11.19,2
1544688,-0.0,0.92,0.3,1.75,-1.06,0.16,11.37,-28.12,11.19,2
1544700,-0.0,0.92,0.3,1.61,-1.06,0.11,11.37,-28.12,11.19,2
1544711,-0.0,0.92,0.3,1.57,-1.03,0.1,11.37,-28.12,11.19,2
1544724,-0.0,0.93,0.3,1.48,-1.04,0.11,11.35,-28.07,11.21,2
1544734,-0.0,0.92,0.3,1.22,-1.06,0.04,11.35,-28.07,11.21,2
1544745,-0.0,0.93,0.3,1.07,-1.03,0.02,11.35,-28.07,11.21,2
1544757,-0.0,0.93,0.3,0.95,-1.03,0.02,11.35,-28.07,11.21,2
1544770,-0.0,0.93,0.3,0.97,-1.08,0.02,11.35,-28.07,11.21,2
1544781,-0.0,0.93,0.3,1.06,-1.14,0.03,11.37,-28.1,11.41,2
1544793,-0.0,0.93,0.3,1.16,-1.16,0.04,11.37,-28.1,11.41,2
1544805,-0.0,0.93,0.3,1.26,-1.14,0.02,11.37,-28.1,11.41,2
1544817,-0.0,0.93,0.3,1.31,-1.13,0.05,11.37,-28.1,11.41,2
1544828,-0.0,0.93,0.3,1.34,-1.11,0.05,11.31,-28.19,11.28,2
1544839,-0.0,0.93,0.3,1.26,-1.09,0.07,11.31,-28.19,11.28,2
1544851,-0.0,0.93,0.3,1.24,-1.05,0.08,11.31,-28.19,11.28,2
1544864,-0.0,0.93,0.3,1.28,-1.09,0.06,11.31,-28.19,11.28,2
1544875,-0.0,0.93,0.3,1.43,-1.08,0.06,11.4,-28.15,11.53,2
1544887,-0.0,0.93,0.3,1.53,-1.11,0.06,11.4,-28.15,11.53,2
1544898,-0.0,0.93,0.3,1.67,-1.11,0.04,11.4,-28.15,11.53,2
1544909,-0.0,0.93,0.3,1.65,-1.11,0.06,11.4,-28.15,11.53,2
1544920,-0.0,0.92,0.3,1.59,-1.1,0.06,11.4,-28.15,11.53,2
1544932,-0.0,0.92,0.3,1.3,-1.06,0.06,11.39,-28.06,11.8,2
1544943,-0.0,0.93,0.3,1.04,-1.07,0.03,11.39,-28.06,11.8,2
1544955,-0.0,0.93,0.3,0.85,-1.06,0.02,11.39,-28.06,11.8,2
1544968,-0.0,0.93,0.3,0.58,-1.09,0.07,11.39,-28.06,11.8,2
1544979,-0.0,0.93,0.3,0.49,-1.13,0.08,11.5,-28.01,11.85,2
1544992,-0.0,0.93,0.3,0.51,-1.1,0.09,11.5,-28.01,11.85,2
1545003,-0.0,0.93,0.3,0.56,-1.11,0.1,11.5,-28.01,11.85,2
1545015,-0.0,0.93,0.3,0.59,-1.12,0.1,11.5,-28.01,11.85,2
1545027,-0.0,0.93,0.3,0.55,-1.16,0.16,11.4,-27.97,11.68,2
1545037,-0.0,0.93,0.3,0.55,-1.17,0.12,11.4,-27.97,11.68,2
1545049,-0.0,0.93,0.3,0.51,-1.12,0.08,11.4,-27.97,11.68,2
1545063,-0.0,0.93,0.3,0.58,-1.14,0.12,11.4,-27.97,11.68,2
1545074,-0.0,0.93,0.3,0.6,-1.11,0.14,11.42,-28.07,11.76,2
1545084,-0.0,0.93,0.3,0.64,-1.1,0.15,11.42,-28.07,11.76,2
1545094,-0.0,0.93,0.3,0.63,-1.13,0.11,11.42,-28.07,11.76,2
1545106,-0.0,0.93,0.3,0.58,-1.09,0.15,11.42,-28.07,11.76,2
1545116,-0.0,0.93,0.3,0.57,-1.12,0.15,11.42,-28.07,11.76,2
1545127,-0.0,0.93,0.3,0.62,-1.14,0.15,11.43,-28.04,11.63,2
1545137,-0.0,0.93,0.29,0.69,-1.16,0.12,11.43,-28.04,11.63,2
1545149,-0.0,0.93,0.29,0.83,-1.08,0.07,11.43,-28.04,11.63,2
1545160,-0.0,0.93,0.29,0.95,-1.07,0.06,11.43,-28.04,11.63,2
1545174,-0.0,0.93,0.29,1.07,-1.11,0.03,11.42,-28.09,11.52,2
1545185,-0.0,0.93,0.3,1.08,-1.13,0.03,11.42,-28.09,11.52,2
1545197,-0.0,0.93,0.29,1.06,-1.04,0.04,11.42,-28.09,11.52,2
1545209,-0.0,0.93,0.29,1.1,-1.07,0.07,11.42,-28.09,11.52,2
1545221,-0.0,0.93,0.29,1.18,-1.05,0.11,11.3,-27.98,11.49,2
1545235,-0.0,0.93,0.29,1.34,-1.03,0.15,11.3,-27.98,11.49,2
1545247,-0.0,0.93,0.29,1.34,-0.96,0.12,11.3,-27.98,11.49,2
1545260,-0.0,0.93,0.29,1.43,-1.01,0.13,11.3,-27.98,11.49,2
1545273,-0.0,0.93,0.29,1.46,-1.04,0.11,11.38,-27.97,11.51,2
1545286,-0.0,0.93,0.29,1.45,-1.08,0.13,11.38,-27.97,11.51,2
1545298,-0.0,0.93,0.29,1.44,-1.04,0.11,11.38,-27.97,11.51,2
1545308,-0.0,0.93,0.29,1.45,-1.07,0.13,11.38,-27.97,11.51,2
1545319,-0.0,0.93,0.3,1.46,-1.11,0.17,11.38,-27.97,11.51,2
1545330,-0.0,0.93,0.29,1.41,-1.1,0.18,11.47,-27.86,11.33,2
1545342,-0.0,0.93,0.29,1.35,-1.11,0.18,11.47,-27.86,11.33,2
1545353,-0.0,0.93,0.29,1.33,-1.11,0.15,11.47,-27.86,11.33,2
1545364,-0.0,0.93,0.29,1.33,-1.09,0.14,11.47,-27.86,11.33,2
1545375,-0.0,0.93,0.29,1.38,-1.07,0.11,11.39,-27.81,11.19,2
1545389,-0.0,0.93,0.29,1.55,-1.06,0.12,11.39,-27.81,11.19,2
1545399,-0.0,0.93,0.29,1.62,-1.07,0.1,11.39,-27.81,11.19,2
1545410,-0.0,0.93,0.29,1.67,-1.08,0.08,11.39,-27.81,11.19,2
1545421,-0.0,0.93,0.29,1.66,-1.07,0.08,11.42,-27.75,11.24,2
1545432,-0.0,0.93,0.29,1.65,-1.09,0.1,11.42,-27.75,11.24,2
1545444,-0.0,0.93,0.29,1.63,-1.01,0.09,11.42,-27.75,11.24,2
1545456,-0.0,0.93,0.3,1.54,-0.98,0.13,11.42,-27.75,11.24,2
1545467,-0.0,0.93,0.3,1.44,-0.99,0.17,11.42,-27.75,11.24,2
1545478,-0.0,0.93,0.29,1.34,-0.99,0.18,11.46,-27.77,11.28,2
1545492,-0.0,0.93,0.29,1.26,-1.02,0.18,11.46,-27.77,11.28,2
1545502,-0.0,0.93,0.29,1.26,-1.03,0.18,11.46,-27.77,11.28,2
1545512,-0.0,0.93,0.29,1.33,-1.02,0.18,11.46,-27.77,11.28,2
1545523,-0.0,0.93,0.29,1.4,-0.99,0.18,11.52,-27.79,11.38,2
1545535,-0.0,0.93,0.3,1.37,-0.98,0.17,11.52,-27.79,11.38,2
1545546,-0.0,0.93,0.3,1.26,-0.98,0.15,11.52,-27.79,11.38,2
1545558,-0.0,0.93,0.29,1.17,-0.98,0.15,11.52,-27.79,11.38,2
1545571,-0.0,0.93,0.29,1.1,-1.03,0.14,11.49,-27.68,11.36,2
1545582,-0.0,0.93,0.29,1.21,-1.05,0.12,11.49,-27.68,11.36,2
1545593,-0.0,0.93,0.29,1.56,-1.02,0.09,11.49,-27.68,11.36,2
1545604,-0.0,0.93,0.29,1.7,-1.05,0.11,11.49,-27.68,11.36,2
1545616,-0.0,0.93,0.29,1.81,-1.02,0.14,11.49,-27.68,11.36,2
1545629,-0.0,0.93,0.29,1.76,-1.02,0.12,11.59,-27.59,11.48,2
1545641,-0.0,0.93,0.29,1.74,-1.03,0.1,11.59,-27.59,11.48,2
1545651,-0.0,0.93,0.29,1.72,-1.05,0.11,11.59,-27.59,11.48,2
1545661,-0.0,0.93,0.3,1.68,-1.09,0.17,11.59,-27.59,11.48,2
1545674,-0.0,0.93,0.29,1.5,-1.1,0.17,11.46,-27.71,11.32,2
1545685,-0.0,0.93,0.29,1.49,-1.1,0.13,11.46,-27.71,11.32,2
1545699,-0.0,0.93,0.29,1.63,-1.04,0.07,11.46,-27.71,11.32,2
1545710,-0.0,0.93,0.29,1.77,-1.01,0.11,11.46,-27.71,11.32,2
1545721,-0.0,0.93,0.29,1.89,-0.96,0.14,11.46,-27.72,11.51,2
1545733,-0.0,0.93,0.3,1.89,-0.92,0.14,11.46,-27.72,11.51,2
1545744,-0.0,0.93,0.3,1.78,-0.88,0.12,11.46,-27.72,11.51,2
1545757,-0.0,0.93,0.3,1.53,-0.91,0.18,11.46,-27.72,11.51,2
1545768,-0.0,0.93,0.29,1.46,-0.91,0.17,11.46,-27.72,11.51,2
1545779,-0.0,0.93,0.29,1.45,-0.94,0.13,11.47,-27.7,11.62,2
1545789,-0.0,0.93,0.29,1.41,-0.95,0.14,11.47,-27.7,11.62,2
1545800,-0.0,0.93,0.29,1.23,-0.95,0.12,11.47,-27.7,11.62,2
1545811,-0.0,0.93,0.29,1.16,-0.94,0.13,11.47,-27.7,11.62,2
1545822,-0.0,0.93,0.29,1.17,-0.95,0.15,11.48,-27.6,11.62,2
1545832,-0.0,0.93,0.29,1.22,-0.99,0.15,11.48,-27.6,11.62,2
1545843,-0.0,0.93,0.29,1.26,-0.96,0.14,11.48,-27.6,11.62,2
1545854,-0.0,0.93,0.29,1.35,-0.92,0.18,11.48,-27.6,11.62,2
1545865,-0.0,0.93,0.29,1.41,-0.97,0.19,11.48,-27.6,11.62,2
1545877,-0.0,0.93,0.29,1.38,-1.02,0.18,11.51,-27.64,11.6,2
1545888,-0.0,0.93,0.29,1.28,-1.0,0.17,11.51,-27.64,11.6,2
1545900,-0.0,0.93,0.29,1.14,-1.02,0.14,11.51,-27.64,11.6,2
1545910,-0.0,0.93,0.29,1.05,-1.04,0.15,11.51,-27.64,11.6,2
1545922,-0.0,0.93,0.29,0.87,-1.07,0.21,11.54,-27.68,11.51,2
1545934,-0.0,0.93,0.3,0.8,-1.12,0.2,11.54,-27.68,11.51,2
1545948,-0.0,0.93,0.29,0.55,-1.08,0.14,11.54,-27.68,11.51,2
1545958,-0.0,0.93,0.29,0.49,-1.05,0.14,11.54,-27.68,11.51,2
1545968,-0.0,0.93,0.29,0.47,-1.06,0.15,11.54,-27.68,11.51,2
1545980,-0.0,0.93,0.29,0.55,-1.06,0.14,11.55,-27.59,11.31,2
1545990,-0.0,0.93,0.29,0.55,-1.04,0.11,11.55,-27.59,11.31,2
1546002,-0.0,0.93,0.29,0.55,-1.02,0.11,11.55,-27.59,11.31,2
1546016,-0.0,0.93,0.29,0.71,-0.97,0.1,11.55,-27.59,11.31,2
1546027,-0.0,0.93,0.29,0.84,-0.99,0.12,11.58,-27.58,11.43,2
1546037,-0.0,0.93,0.29,0.87,-0.97,0.16,11.58,-27.58,11.43,2
1546047,-0.0,0.93,0.29,0.87,-0.96,0.14,11.58,-27.58,11.43,2
1546059,-0.0,0.93,0.29,0.94,-1.05,0.16,11.58,-27.58,11.43,2
1546071,-0.0,0.93,0.29,1.01,-1.03,0.15,11.56,-27.64,11.37,2
1546085,-0.0,0.93,0.29,1.08,-1.04,0.15,11.56,-27.64,11.37,2
1546095,-0.0,0.93,0.29,1.07,-1.0,0.12,11.56,-27.64,11.37,2
1546105,-0.0,0.93,0.29,1.13,-1.01,0.12,11.56,-27.64,11.37,2
1546115,-0.0,0.93,0.29,1.19,-1.03,0.12,11.56,-27.64,11.37,2
1546128,-0.0,0.93,0.29,1.34,-1.02,0.19,11.57,-27.65,11.47,2
1546138,-0.0,0.93,0.29,1.38,-0.98,0.18,11.57,-27.65,11.47,2
1546149,-0.0,0.93,0.29,1.38,-1.0,0.14,11.57,-27.65,11.47,2
1546160,-0.0,0.93,0.29,1.32,-0.99,0.17,11.57,-27.65,11.47,2
1546172,-0.0,0.93,0.29,1.24,-0.97,0.19,11.6,-27.72,11.65,2
1546184,-0.0,0.93,0.29,1.17,-0.96,0.17,11.6,-27.72,11.65,2
1546195,-0.0,0.93,0.29,0.82,-0.97,0.17,11.6,-27.72,11.65,2
1546206,-0.0,0.93,0.29,0.72,-1.01,0.18,11.6,-27.72,11.65,2
1546216,-0.0,0.93,0.29,0.63,-0.99,0.2,11.6,-27.72,11.65,2
1546227,-0.0,0.93,0.29,0.55,-0.99,0.19,11.62,-27.64,11.58,2
1546238,-0.0,0.93,0.29,0.42,-0.94,0.13,11.62,-27.64,11.58,2
1546249,-0.0,0.93,0.29,0.45,-0.95,0.11,11.62,-27.64,11.58,2
1546259,-0.0,0.93,0.29,0.5,-0.99,0.11,11.62,-27.64,11.58,2
1546269,-0.0,0.93,0.29,0.53,-1.02,0.13,11.62,-27.64,11.58,2
1546282,-0.0,0.93,0.29,0.52,-1.04,0.15,11.47,-27.67,11.63,2
1546292,-0.0,0.93,0.29,0.54,-1.0,0.14,11.47,-27.67,11.63,2
1546303,-0.0,0.93,0.29,0.58,-0.98,0.15,11.47,-27.67,11.63,2
1546317,-0.0,0.93,0.29,0.69,-0.99,0.12,11.47,-27.67,11.63,2
1546328,-0.0,0.93,0.29,0.74,-1.0,0.13,11.43,-27.71,11.63,2
1546338,-0.0,0.93,0.29,0.82,-1.01,0.13,11.43,-27.71,11.63,2
1546348,-0.0,0.93,0.29,0.86,-0.97,0.13,11.43,-27.71,11.63,2
1546360,-0.0,0.93,0.29,0.87,-1.0,0.16,11.43,-27.71,11.63,2
1546370,-0.0,0.93,0.29,0.82,-1.01,0.14,11.39,-27.72,11.64,2
1546381,-0.0,0.93,0.28,0.82,-1.04,0.16,11.39,-27.72,11.64,2
1546391,-0.0,0.93,0.28,0.84,-1.03,0.18,11.39,-27.72,11.64,2
1546402,-0.0,0.93,0.29,0.87,-1.07,0.16,11.39,-27.72,11.64,2
1546414,-0.0,0.93,0.28,0.87,-1.06,0.19,11.39,-27.72,11.64,2
1546426,-0.0,0.93,0.28,1.0,-1.02,0.2,11.54,-27.69,11.82,2
1546437,-0.0,0.93,0.29,0.97,-1.01,0.15,11.54,-27.69,11.82,2
1546449,-0.0,0.93,0.29,0.83,-0.99,0.15,11.54,-27.69,11.82,2
1546459,-0.0,0.93,0.29,0.76,-1.0,0.17,11.54,-27.69,11.82,2
1546472,-0.0,0.93,0.28,0.72,-0.98,0.17,11.43,-27.63,11.81,2
1546483,-0.0,0.93,0.28,0.76,-1.01,0.16,11.43,-27.63,11.81,2
1546497,-0.0,0.93,0.28,0.88,-1.0,0.14,11.43,-27.63,11.81,2
1546507,-0.0,0.93,0.28,0.97,-0.99,0.13,11.43,-27.63,11.81,2
1546517,-0.0,0.93,0.28,0.98,-1.03,0.1,11.43,-27.63,11.81,2
1546528,-0.0,0.93,0.28,0.99,-1.07,0.09,11.43,-27.75,11.91,2
1546539,-0.0,0.93,0.28,0.94,-1.11,0.1,11.43,-27.75,11.91,2
1546551,-0.0,0.93,0.28,0.88,-1.1,0.12,11.43,-27.75,11.91,2
1546564,-0.0,0.93,0.28,0.7,-1.08,0.09,11.43,-27.75,11.91,2
1546576,-0.0,0.93,0.28,0.54,-1.07,0.07,11.36,-27.77,12.0,2
1546587,-0.0,0.93,0.28,0.46,-1.04,0.08,11.36,-27.77,12.0,2
1546598,-0.0,0.93,0.28,0.37,-0.97,0.05,11.36,-27.77,12.0,2
1546609,-0.0,0.93,0.28,0.44,-0.97,0.01,11.36,-27.77,12.0,2
1546620,-0.0,0.93,0.28,0.53,-1.0,0.04,11.34,-27.87,11.99,2
1546633,-0.0,0.93,0.28,0.6,-1.0,0.07,11.34,-27.87,11.99,2
1546644,-0.0,0.93,0.28,0.6,-1.0,0.04,11.34,-27.87,11.99,2
1546654,-0.0,0.93,0.28,0.63,-1.05,0.07,11.34,-27.87,11.99,2
1546664,-0.0,0.93,0.28,0.64,-1.04,0.07,11.34,-27.87,11.99,2
1546675,-0.0,0.93,0.28,0.6,-1.02,0.13,11.4,-27.89,11.63,2
1546687,-0.0,0.93,0.28,0.54,-1.04,0.11,11.4,-27.89,11.63,2
1546697,-0.0,0.93,0.28,0.45,-1.01,0.1,11.4,-27.89,11.63,2
1546707,-0.0,0.93,0.28,0.36,-1.0,0.12,11.4,-27.89,11.63,2
1546721,-0.0,0.93,0.28,0.28,-1.01,0.15,11.6,-27.94,11.75,2
1546733,-0.0,0.93,0.28,0.26,-0.98,0.14,11.6,-27.94,11.75,2
1546743,-0.0,0.93,0.28,0.24,-0.98,0.12,11.6,-27.94,11.75,2
1546755,-0.0,0.93,0.28,0.16,-1.0,0.12,11.6,-27.94,11.75,2
1546765,-0.0,0.93,0.28,0.07,-1.01,0.12,11.6,-27.94,11.75,2
1546775,-0.0,0.93,0.28,-0.04,-0.99,0.13,11.63,-27.99,11.94,2
1546786,-0.0,0.93,0.28,-0.06,-1.01,0.12,11.63,-27.99,11.94,2
1546798,-0.0,0.93,0.28,0.03,-0.99,0.11,11.63,-27.99,11.94,2
1546808,-0.0,0.93,0.28,0.12,-0.97,0.1,11.63,-27.99,11.94,2
1546818,-0.0,0.93,0.28,0.25,-0.98,0.09,11.63,-27.99,11.94,2
1546829,-0.0,0.93,0.28,0.44,-1.04,0.11,11.64,-27.98,12.03,2
1546841,-0.0,0.93,0.28,0.67,-1.02,0.13,11.64,-27.98,12.03,2
1546851,-0.0,0.93,0.28,0.75,-1.0,0.13,11.64,-27.98,12.03,2
1546861,-0.0,0.93,0.28,0.79,-1.0,0.14,11.64,-27.98,12.03,2
1546873,-0.0,0.93,0.28,0.82,-1.0,0.16,11.62,-27.91,12.22,2
1546884,-0.0,0.93,0.27,0.86,-1.05,0.18,11.62,-27.91,12.22,2
1546894,-0.0,0.93,0.27,0.94,-1.06,0.14,11.62,-27.91,12.22,2
1546904,-0.0,0.93,0.28,1.06,-1.09,0.15,11.62,-27.91,12.22,2
1546914,-0.0,0.93,0.28,1.09,-1.11,0.16,11.62,-27.91,12.22,2
1546926,-0.0,0.93,0.28,1.0,-1.07,0.15,11.58,-27.92,12.42,2
1546938,-0.0,0.93,0.28,0.92,-1.06,0.15,11.58,-27.92,12.42,2
1546952,-0.0,0.93,0.28,0.63,-1.02,0.12,11.58,-27.92,12.42,2
1546962,-0.0,0.93,0.28,0.5,-1.03,0.13,11.58,-27.92,12.42,2
1546973,-0.0,0.93,0.28,0.43,-1.08,0.14,11.57,-27.86,12.42,2
1546983,-0.0,0.93,0.28,0.4,-1.13,0.14,11.57,-27.86,12.42,2
1546995,-0.0,0.93,0.27,0.35,-1.05,0.09,11.57,-27.86,12.42,2
1547005,-0.0,0.93,0.27,0.32,-1.02,0.07,11.57,-27.86,12.42,2
1547015,-0.0,0.93,0.27,0.32,-0.99,0.1,11.57,-27.86,12.42,2
1547025,-0.0,0.93,0.27,0.36,-0.96,0.1,11.65,-27.82,12.35,2
1547038,-0.0,0.93,0.27,0.53,-1.0,0.12,11.65,-27.82,12.35,2
1547048,-0.0,0.93,0.27,0.57,-1.05,0.12,11.65,-27.82,12.35,2
1547058,-0.0,0.94,0.27,0.58,-1.06,0.11,11.65,-27.82,12.35,2
1547069,-0.0,0.93,0.27,0.56,-1.05,0.11,11.65,-27.93,12.52,2
1547081,-0.0,0.94,0.27,0.42,-1.06,0.16,11.65,-27.93,12.52,2
1547091,-0.0,0.94,0.27,0.36,-1.03,0.15,11.65,-27.93,12.52,2
1547101,-0.0,0.94,0.27,0.33,-1.08,0.12,11.65,-27.93,12.52,2
1547111,-0.0,0.93,0.27,0.35,-1.11,0.09,11.65,-27.93,12.52,2
1547124,-0.0,0.94,0.27,0.27,-1.1,0.12,11.63,-27.96,12.4,2
1547135,-0.0,0.94,0.27,0.28,-1.1,0.13,11.63,-27.96,12.4,2
1547148,-0.0,0.94,0.27,0.17,-1.09,0.1,11.63,-27.96,12.4,2
1547159,-0.0,0.93,0.27,-0.02,-1.14,0.11,11.63,-27.96,12.4,2
1547170,-0.0,0.93,0.27,-0.27,-1.17,0.11,11.61,-27.88,12.44,2
1547183,-0.0,0.93,0.27,-0.88,-1.22,0.1,11.61,-27.88,12.44,2
1547195,-0.0,0.94,0.27,-1.17,-1.22,0.08,11.61,-27.88,12.44,2
1547208,-0.0,0.93,0.27,-1.47,-1.18,0.07,11.61,-27.88,12.44,2
1547220,-0.0,0.94,0.27,-1.43,-1.16,0.07,11.59,-27.92,12.44,2
1547232,-0.0,0.94,0.26,-1.26,-1.14,0.07,11.59,-27.92,12.44,2
1547244,-0.0,0.94,0.26,-0.75,-1.13,0.02,11.59,-27.92,12.44,2
1547254,-0.0,0.94,0.26,-0.53,-1.1,0.01,11.59,-27.92,12.44,2
1547264,-0.0,0.94,0.26,-0.29,-1.08,0.02,11.59,-27.92,12.44,2
1547275,-0.0,0.94,0.26,-0.05,-1.06,0.07,11.58,-27.86,12.51,2
1547287,-0.0,0.94,0.26,0.23,-1.0,0.09,11.58,-27.86,12.51,2
1547298,-0.0,0.94,0.26,0.33,-0.98,0.08,11.58,-27.86,12.51,2
1547311,-0.0,0.94,0.26,0.7,-0.97,0.1,11.58,-27.86,12.51,2
1547323,-0.0,0.94,0.26,0.87,-0.98,0.11,11.64,-27.87,12.64,2
1547333,-0.0,0.94,0.26,1.0,-1.01,0.11,11.64,-27.87,12.64,2
1547343,-0.0,0.94,0.26,1.02,-0.95,0.09,11.64,-27.87,12.64,2
1547354,-0.0,0.94,0.26,0.94,-1.02,0.06,11.64,-27.87,12.64,2
1547365,-0.0,0.94,0.26,0.94,-1.05,0.08,11.64,-27.87,12.64,2
1547375,-0.0,0.94,0.26,0.96,-1.07,0.07,11.66,-27.84,12.7,2
1547388,-0.0,0.94,0.26,1.03,-0.97,0.11,11.66,-27.84,12.7,2
1547399,-0.0,0.94,0.26,1.18,-0.97,0.12,11.66,-27.84,12.7,2
1547411,-0.0,0.94,0.26,1.34,-1.01,0.12,11.66,-27.84,12.7,2
1547423,-0.0,0.94,0.26,1.4,-1.06,0.16,11.69,-27.78,12.68,2
1547434,-0.0,0.94,0.26,1.27,-1.04,0.11,11.69,-27.78,12.68,2
1547445,-0.0,0.94,0.27,1.03,-0.99,0.09,11.69,-27.78,12.68,2
1547459,-0.0,0.94,0.26,0.7,-1.13,0.07,11.69,-27.78,12.68,2
1547470,-0.0,0.94,0.26,0.66,-1.11,0.08,11.71,-27.82,12.66,2
1547480,-0.0,0.94,0.26,0.65,-1.09,0.11,11.71,-27.82,12.66,2
1547490,-0.0,0.94,0.26,0.64,-1.09,0.08,11.71,-27.82,12.66,2
1547502,-0.0,0.94,0.26,0.53,-1.1,0.06,11.71,-27.82,12.66,2
1547513,-0.0,0.94,0.26,0.45,-1.08,0.09,11.71,-27.82,12.66,2
1547524,-0.0,0.94,0.26,0.33,-1.07,0.1,11.8,-27.67,12.53,2
1547536,-0.0,0.94,0.26,-0.09,-1.09,0.09,11.8,-27.67,12.53,2
1547548,-0.0,0.94,0.26,-0.34,-1.1,0.06,11.8,-27.67,12.53,2
1547561,-0.0,0.94,0.26,-0.63,-1.09,0.05,11.8,-27.67,12.53,2
1547573,-0.0,0.94,0.26,-0.64,-1.07,0.06,11.85,-27.59,12.73,2
1547583,-0.0,0.94,0.26,-0.61,-1.05,0.06,11.85,-27.59,12.73,2
1547593,-0.0,0.94,0.26,-0.51,-1.05,0.03,11.85,-27.59,12.73,2
1547605,-0.0,0.94,0.26,-0.35,-1.08,0.09,11.85,-27.59,12.73,2
1547615,-0.0,0.94,0.26,-0.35,-1.08,0.13,11.85,-27.59,12.73,2
1547626,-0.0,0.94,0.26,-0.37,-1.1,0.12,11.78,-27.58,12.86,2
1547639,-0.0,0.94,0.25,-0.19,-1.02,0.12,11.78,-27.58,12.86,2
1547651,-0.0,0.94,0.25,-0.04,-1.05,0.13,11.78,-27.58,12.86,2
1547665,-0.0,0.94,0.25,0.19,-1.08,0.12,11.78,-27.58,12.86,2
1547676,-0.0,0.94,0.25,0.28,-1.15,0.14,11.84,-27.5,12.96,2
1547687,-0.0,0.94,0.25,0.34,-1.18,0.15,11.84,-27.5,12.96,2
1547699,-0.0,0.94,0.25,0.54,-1.11,0.14,11.84,-27.5,12.96,2
1547711,-0.0,0.94,0.25,0.58,-1.11,0.17,11.84,-27.5,12.96,2
1547723,-0.0,0.94,0.25,0.63,-1.11,0.17,11.76,-27.55,12.82,2
1547734,-0.0,0.94,0.25,0.67,-1.11,0.15,11.76,-27.55,12.82,2
1547745,-0.0,0.94,0.25,0.71,-1.09,0.11,11.76,-27.55,12.82,2
1547759,-0.0,0.94,0.25,0.95,-1.12,0.14,11.76,-27.55,12.82,2
1547770,-0.0,0.94,0.25,1.02,-1.14,0.11,11.83,-27.53,12.76,2
1547782,-0.0,0.94,0.25,1.05,-1.19,0.12,11.83,-27.53,12.76,2
1547794,-0.0,0.94,0.25,0.95,-1.15,0.08,11.83,-27.53,12.76,2
1547806,-0.0,0.94,0.25,0.92,-1.15,0.09,11.83,-27.53,12.76,2
1547816,-0.0,0.94,0.25,0.86,-1.17,0.08,11.83,-27.53,12.76,2
1547829,-0.0,0.94,0.25,0.85,-1.23,0.08,11.77,-27.51,12.92,2
1547839,-0.0,0.94,0.25,0.89,-1.29,0.06,11.77,-27.51,12.92,2
1547850,-0.0,0.94,0.25,0.91,-1.39,0.06,11.77,-27.51,12.92,2
1547862,-0.0,0.94,0.25,1.03,-1.53,0.08,11.77,-27.51,12.92,2
1547873,-0.0,0.94,0.25,1.17,-1.55,0.09,11.78,-27.45,12.85,2
1547885,-0.0,0.94,0.25,1.18,-1.54,0.08,11.78,-27.45,12.85,2
1547897,-0.0,0.94,0.25,1.09,-1.44,0.08,11.78,-27.45,12.85,2
1547907,-0.0,0.94,0.25,1.08,-1.42,0.1,11.78,-27.45,12.85,2
1547918,-0.0,0.94,0.25,1.07,-1.39,0.08,11.72,-27.33,12.98,2
1547928,-0.0,0.94,0.25,1.09,-1.38,0.07,11.72,-27.33,12.98,2
1547940,-0.0,0.94,0.25,1.19,-1.31,0.04,11.72,-27.33,12.98,2
1547950,-0.0,0.94,0.25,1.32,-1.32,0.06,11.72,-27.33,12.98,2
1547960,-0.0,0.94,0.25,1.4,-1.31,0.07,11.72,-27.33,12.98,2
1547971,-0.0,0.94,0.25,1.44,-1.28,0.07,11.68,-27.33,13.0,2
1547983,-0.0,0.94,0.25,1.45,-1.2,0.09,11.68,-27.33,13.0,2
1547993,-0.0,0.94,0.25,1.4,-1.14,0.03,11.68,-27.33,13.0,2
1548003,-0.0,0.94,0.25,1.33,-1.13,0.05,11.68,-27.33,13.0,2
1548013,-0.0,0.94,0.25,1.23,-1.11,0.08,11.68,-27.33,13.0,2
1548026,-0.0,0.94,0.25,0.83,-1.11,0.13,11.65,-27.42,13.05,2
1548036,-0.0,0.94,0.25,0.68,-1.06,0.1,11.65,-27.42,13.05,2
1548046,-0.0,0.94,0.25,0.54,-1.03,0.08,11.65,-27.42,13.05,2
1548056,-0.0,0.94,0.25,0.41,-1.02,0.1,11.65,-27.42,13.05,2
1548068,-0.0,0.94,0.25,0.3,-1.06,0.06,11.66,-27.59,13.54,2
1548078,-0.0,0.94,0.25,0.38,-1.04,0.08,11.66,-27.59,13.54,2
1548088,-0.0,0.94,0.25,0.51,-1.01,0.05,11.66,-27.59,13.54,2
1548098,-0.0,0.94,0.25,0.7,-1.06,0.04,11.66,-27.59,13.54,2
1548108,-0.0,0.94,0.25,0.97,-1.15,0.06,11.66,-27.59,13.54,2
1548121,-0.0,0.94,0.25,1.48,-1.16,0.1,11.83,-27.66,13.76,2
1548131,-0.0,0.94,0.25,1.65,-1.12,0.15,11.83,-27.66,13.76,2
1548141,-0.0,0.94,0.25,1.72,-1.04,0.15,11.83,-27.66,13.76,2
1548151,-0.0,0.94,0.25,1.72,-1.04,0.17,11.83,-27.66,13.76,2
1548163,-0.0,0.94,0.25,1.64,-1.02,0.18,11.83,-27.66,13.76,2
1548174,-0.0,0.94,0.25,1.63,-1.01,0.18,11.8,-27.66,13.84,2
1548184,-0.0,0.94,0.25,1.67,-0.99,0.18,11.8,-27.66,13.84,2
1548194,-0.0,0.94,0.25,1.65,-0.91,0.14,11.8,-27.66,13.84,2
1548206,-0.0,0.94,0.25,1.7,-0.97,0.13,11.8,-27.66,13.84,2
1548216,-0.0,0.94,0.25,1.73,-1.0,0.17,11.8,-27.66,13.84,2
1548227,-0.0,0.94,0.25,1.71,-1.06,0.17,11.76,-27.53,13.8,2
1548237,-0.0,0.94,0.25,1.7,-1.1,0.16,11.76,-27.53,13.8,2
1548249,-0.0,0.94,0.25,1.73,-1.1,0.13,11.76,-27.53,13.8,2
1548259,-0.0,0.94,0.25,1.7,-1.11,0.14,11.76,-27.53,13.8,2
1548270,-0.0,0.94,0.25,1.69,-1.16,0.13,11.69,-27.63,13.99,2
1548280,-0.0,0.94,0.25,1.67,-1.24,0.13,11.69,-27.63,13.99,2
1548292,-0.0,0.94,0.25,1.51,-1.2,0.11,11.69,-27.63,13.99,2
1548302,-0.0,0.94,0.25,1.39,-1.23,0.12,11.69,-27.63,13.99,2
1548312,-0.0,0.94,0.25,1.3,-1.22,0.09,11.69,-27.63,13.99,2
1548323,-0.0,0.94,0.25,1.24,-1.32,0.03,11.62,-27.63,14.0,2
1548335,-0.0,0.94,0.25,1.17,-1.4,-0.04,11.62,-27.63,14.0,2
1548345,-0.0,0.94,0.25,1.23,-1.37,-0.03,11.62,-27.63,14.0,2
1548355,-0.0,0.94,0.25,1.35,-1.31,0.01,11.62,-27.63,14.0,2
1548365,-0.0,0.94,0.25,1.46,-1.28,0.04,11.62,-27.63,14.0,2
1548378,-0.0,0.94,0.25,1.77,-1.19,0.06,11.78,-27.58,14.04,2
1548388,-0.0,0.94,0.25,1.89,-1.18,0.09,11.78,-27.58,14.04,2
1548398,-0.0,0.94,0.25,2.02,-1.26,0.07,11.78,-27.58,14.04,2
1548408,-0.0,0.94,0.25,2.12,-1.45,0.02,11.78,-27.58,14.04,2
1548421,-0.0,0.94,0.25,2.04,-1.78,-0.04,11.89,-27.6,13.88,2
1548431,-0.0,0.94,0.25,1.96,-1.73,-0.06,11.89,-27.6,13.88,2
1548443,-0.0,0.94,0.25,1.88,-1.66,-0.07,11.89,-27.6,13.88,2
1548455,-0.0,0.94,0.25,1.66,-1.52,-0.02,11.89,-27.6,13.88,2
1548465,-0.0,0.94,0.25,1.46,-1.47,-0.01,11.89,-27.6,13.88,2
1548476,-0.0,0.94,0.25,1.2,-1.41,0.02,11.9,-27.6,14.02,2
1548486,-0.0,0.94,0.25,0.91,-1.39,0.03,11.9,-27.6,14.02,2
1548498,-0.0,0.94,0.25,0.38,-1.28,0.05,11.9,-27.6,14.02,2
1548508,-0.0,0.94,0.25,0.21,-1.22,0.06,11.9,-27.6,14.02,2
1548519,-0.0,0.94,0.25,0.1,-1.17,0.08,11.99,-27.49,14.12,2
1548529,-0.0,0.94,0.25,0.05,-1.17,0.09,11.99,-27.49,14.12,2
1548541,-0.0,0.94,0.25,0.12,-1.03,0.08,11.99,-27.49,14.12,2
1548551,-0.0,0.94,0.25,0.24,-1.1,0.09,11.99,-27.49,14.12,2
1548561,-0.0,0.94,0.25,0.2,-1.11,0.08,11.99,-27.49,14.12,2
1548572,-0.0,0.94,0.25,0.31,-1.08,0.05,11.97,-27.41,13.93,2
1548584,-0.0,0.94,0.25,0.4,-1.09,0.03,11.97,-27.41,13.93,2
1548594,-0.0,0.94,0.25,0.35,-1.1,0.04,11.97,-27.41,13.93,2
1548604,-0.0,0.94,0.25,0.27,-1.09,0.07,11.97,-27.41,13.93,2
1548614,-0.0,0.94,0.25,0.16,-1.09,0.07,11.97,-27.41,13.93,2
1548627,-0.0,0.94,0.25,-0.04,-1.11,0.05,11.86,-27.41,13.91,2
1548637,-0.0,0.94,0.25,-0.16,-1.08,0.05,11.86,-27.41,13.91,2
1548647,-0.0,0.94,0.24,-0.2,-1.07,0.08,11.86,-27.41,13.91,2
1548657,-0.0,0.94,0.24,-0.17,-1.09,0.12,11.86,-27.41,13.91,2
1548670,-0.0,0.94,0.24,0.08,-1.12,0.16,11.81,-27.39,13.88,2
1548680,-0.0,0.94,0.24,0.22,-1.11,0.18,11.81,-27.39,13.88,2
1548690,-0.0,0.94,0.24,0.34,-1.07,0.16,11.81,-27.39,13.88,2
1548700,-0.0,0.94,0.24,0.44,-1.01,0.13,11.81,-27.39,13.88,2
1548711,-0.0,0.94,0.24,0.74,-1.0,0.13,11.81,-27.39,13.88,2
1548723,-0.0,0.94,0.24,0.86,-1.03,0.14,11.84,-27.6,13.63,2
1548733,-0.0,0.94,0.24,0.91,-1.05,0.14,11.84,-27.6,13.63,2
1548743,-0.0,0.94,0.24,0.94,-1.03,0.15,11.84,-27.6,13.63,2
1548754,-0.0,0.94,0.24,0.99,-1.03,0.14,11.84,-27.6,13.63,2
1548765,-0.0,0.94,0.24,1.02,-1.0,0.12,11.84,-27.6,13.63,2
1548776,-0.0,0.94,0.24,1.03,-1.01,0.12,11.85,-27.59,13.68,2
1548786,-0.0,0.94,0.24,1.06,-1.04,0.11,11.85,-27.59,13.68,2
1548798,-0.0,0.94,0.24,1.21,-1.04,0.1,11.85,-27.59,13.68,2
1548808,-0.0,0.94,0.24,1.28,-1.03,0.11,11.85,-27.59,13.68,2
1548819,-0.0,0.94,0.24,1.32,-1.04,0.1,11.86,-27.6,13.48,2
1548829,-0.0,0.94,0.24,1.34,-1.03,0.09,11.86,-27.6,13.48,2
1548841,-0.0,0.94,0.24,1.28,-1.02,0.03,11.86,-27.6,13.48,2
1548851,-0.0,0.94,0.24,1.31,-1.05,0.08,11.86,-27.6,13.48,2
1548861,-0.0,0.94,0.24,1.32,-1.05,0.12,11.86,-27.6,13.48,2
1548872,-0.0,0.94,0.24,1.4,-1.06,0.1,11.79,-27.64,13.4,2
1548884,-0.0,0.94,0.24,1.65,-1.06,0.11,11.79,-27.64,13.4,2
1548894,-0.0,0.94,0.24,1.7,-1.05,0.14,11.79,-27.64,13.4,2
1548904,-0.0,0.94,0.24,1.63,-1.06,0.12,11.79,-27.64,13.4,2
1548914,-0.0,0.94,0.25,1.48,-1.04,0.11,11.79,-27.64,13.4,2
1548927,-0.0,0.94,0.25,0.97,-1.03,0.1,11.82,-27.7,13.4,2
1548937,-0.0,0.94,0.24,0.73,-1.0,0.07,11.82,-27.7,13.4,2
1548947,-0.0,0.94,0.24,0.61,-1.0,0.07,11.82,-27.7,13.4,2
1548957,-0.0,0.94,0.24,0.53,-1.03,0.07,11.82,-27.7,13.4,2
1548970,-0.0,0.94,0.24,0.59,-1.04,0.06,11.84,-27.52,13.48,2
1548980,-0.0,0.94,0.24,0.69,-1.04,0.06,11.84,-27.52,13.48,2
1548990,-0.0,0.94,0.24,0.74,-0.98,0.02,11.84,-27.52,13.48,2
1549000,-0.0,0.94,0.24,0.79,-1.02,0.07,11.84,-27.52,13.48,2
1549010,-0.0,0.94,0.24,0.82,-1.01,0.12,11.84,-27.52,13.48,2
1549023,-0.0,0.94,0.24,0.88,-1.0,0.17,11.83,-27.5,13.3,2
1549033,-0.0,0.94,0.24,0.87,-1.02,0.17,11.83,-27.5,13.3,2
1549043,-0.0,0.94,0.24,0.84,-1.01,0.15,11.83,-27.5,13.3,2
1549053,-0.0,0.94,0.24,0.86,-1.02,0.14,11.83,-27.5,13.3,2
1549066,-0.0,0.94,0.24,1.0,-1.07,0.12,11.75,-27.48,13.31,2
1549077,-0.0,0.94,0.24,1.06,-1.04,0.13,11.75,-27.48,13.31,2
1549088,-0.0,0.94,0.24,1.08,-1.03,0.12,11.75,-27.48,13.31,2
1549099,-0.0,0.94,0.24,1.05,-1.02,0.14,11.75,-27.48,13.31,2
1549111,-0.0,0.94,0.24,0.98,-1.02,0.14,11.75,-27.48,13.31,2
1549123,-0.0,0.94,0.24,0.68,-1.04,0.16,11.75,-27.48,13.48,2
1549134,-0.0,0.94,0.24,0.57,-1.03,0.14,11.75,-27.48,13.48,2
1549144,-0.0,0.95,0.24,0.62,-1.0,0.13,11.75,-27.48,13.48,2
1549154,-0.0,0.95,0.24,0.79,-1.02,0.17,11.75,-27.48,13.48,2
1549164,-0.0,0.94,0.24,0.97,-1.04,0.19,11.75,-27.48,13.48,2
1549177,-0.0,0.94,0.24,1.1,-1.0,0.2,11.84,-27.53,13.38,2
1549187,-0.0,0.94,0.24,1.06,-0.97,0.17,11.84,-27.53,13.38,2
1549197,-0.0,0.94,0.24,0.94,-0.98,0.12,11.84,-27.53,13.38,2
1549207,-0.0,0.94,0.24,0.86,-1.01,0.13,11.84,-27.53,13.38,2
1549220,-0.0,0.95,0.24,0.8,-1.07,0.16,11.89,-27.59,13.46,2
1549230,-0.0,0.95,0.24,0.85,-1.08,0.17,11.89,-27.59,13.46,2
1549240,-0.0,0.94,0.24,0.93,-1.04,0.16,11.89,-27.59,13.46,2
1549250,-0.0,0.94,0.24,1.05,-1.08,0.14,11.89,-27.59,13.46,2
1549262,-0.0,0.95,0.24,1.21,-1.11,0.12,11.89,-27.59,13.46,2
1549273,-0.0,0.95,0.24,1.17,-1.1,0.11,11.83,-27.48,13.68,2
1549283,-0.0,0.95,0.24,1.09,-1.1,0.12,11.83,-27.48,13.68,2
1549293,-0.0,0.94,0.24,0.95,-1.03,0.14,11.83,-27.48,13.68,2
1549305,-0.0,0.94,0.24,0.71,-1.06,0.13,11.83,-27.48,13.68,2
1549316,-0.0,0.95,0.24,0.66,-1.04,0.14,11.7,-27.56,13.61,2
1549326,-0.0,0.95,0.23,0.72,-1.05,0.17,11.7,-27.56,13.61,2
1549336,-0.0,0.95,0.23,0.87,-1.05,0.17,11.7,-27.56,13.61,2
1549348,-0.0,0.95,0.24,1.13,-1.04,0.15,11.7,-27.56,13.61,2
1549358,-0.0,0.94,0.24,1.2,-1.05,0.2,11.7,-27.56,13.61,2
1549369,-0.0,0.94,0.24,1.15,-1.05,0.18,11.58,-27.53,13.54,2
1549379,-0.0,0.94,0.24,1.03,-1.09,0.18,11.58,-27.53,13.54,2
1549391,-0.0,0.95,0.24,0.71,-1.02,0.19,11.58,-27.53,13.54,2
1549401,-0.0,0.95,0.24,0.6,-1.04,0.19,11.58,-27.53,13.54,2
1549411,-0.0,0.94,0.23,0.62,-1.04,0.18,11.58,-27.53,13.54,2
1549422,-0.0,0.94,0.24,0.67,-1.06,0.16,11.65,-27.46,13.64,2
1549434,-0.0,0.95,0.24,0.64,-1.02,0.11,11.65,-27.46,13.64,2
1549444,-0.0,0.95,0.24,0.59,-1.03,0.07,11.65,-27.46,13.64,2
1549454,-0.0,0.95,0.24,0.54,-1.04,0.05,11.65,-27.46,13.64,2
1549464,-0.0,0.95,0.23,0.52,-1.06,0.07,11.65,-27.46,13.64,2
1549477,-0.0,0.95,0.23,0.59,-1.11,0.1,11.58,-27.41,13.41,2
1549487,-0.0,0.95,0.23,0.64,-1.07,0.09,11.58,-27.41,13.41,2
1549497,-0.0,0.95,0.23,0.7,-1.02,0.09,11.58,-27.41,13.41,2
1549507,-0.0,0.95,0.23,0.73,-1.0,0.07,11.58,-27.41,13.41,2
1549520,-0.0,0.95,0.23,0.72,-1.08,0.1,11.61,-27.46,13.19,2
1549530,-0.0,0.95,0.23,0.74,-1.11,0.12,11.61,-27.46,13.19,2
1549540,-0.0,0.95,0.23,0.72,-1.09,0.1,11.61,-27.46,13.19,2
1549550,-0.0,0.95,0.23,0.72,-1.1,0.07,11.61,-27.46,13.19,2
1549561,-0.0,0.95,0.23,0.61,-1.1,0.11,11.61,-27.46,13.19,2
1549573,-0.0,0.95,0.23,0.58,-1.07,0.11,11.56,-27.57,13.49,2
1549583,-0.0,0.95,0.23,0.55,-1.08,0.09,11.56,-27.57,13.49,2
1549595,-0.0,0.95,0.23,0.62,-1.13,0.04,11.56,-27.57,13.49,2
1549606,-0.0,0.95,0.23,0.67,-1.13,0.03,11.56,-27.57,13.49,2
1549617,-0.0,0.95,0.23,0.71,-1.17,0.07,11.65,-27.49,13.47,2
1549631,-0.0,0.95,0.23,0.78,-1.16,0.13,11.65,-27.49,13.47,2
1549641,-0.0,0.95,0.23,0.78,-1.14,0.13,11.65,-27.49,13.47,2
1549651,-0.0,0.95,0.23,0.79,-1.16,0.14,11.65,-27.49,13.47,2
1549661,-0.0,0.95,0.23,0.81,-1.17,0.17,11.65,-27.49,13.47,2
1549674,-0.0,0.95,0.23,0.89,-1.1,0.13,11.77,-27.47,13.39,2
1549684,-0.0,0.95,0.23,0.97,-1.09,0.09,11.77,-27.47,13.39,2
1549694,-0.0,0.95,0.23,1.06,-1.11,0.07,11.77,-27.47,13.39,2
1549704,-0.0,0.95,0.23,1.12,-1.13,0.08,11.77,-27.47,13.39,2
1549715,-0.0,0.95,0.23,1.11,-1.19,0.08,11.84,-27.44,13.55,2
1549726,-0.0,0.95,0.23,1.06,-1.16,0.06,11.84,-27.44,13.55,2
1549736,-0.0,0.95,0.23,0.94,-1.14,0.09,11.84,-27.44,13.55,2
1549746,-0.0,0.95,0.23,0.85,-1.15,0.08,11.84,-27.44,13.55,2
1549756,-0.0,0.95,0.23,0.78,-1.14,0.05,11.84,-27.44,13.55,2
1549769,-0.0,0.95,0.23,0.74,-1.19,0.03,11.86,-27.48,13.61,2
1549779,-0.0,0.95,0.23,0.74,-1.13,0.06,11.86,-27.48,13.61,2
1549789,-0.0,0.95,0.23,0.74,-1.07,0.05,11.86,-27.48,13.61,2
1549799,-0.0,0.95,0.23,0.8,-1.1,0.08,11.86,-27.48,13.61,2
1549809,-0.0,0.95,0.23,0.81,-1.15,0.08,11.86,-27.48,13.61,2
1549821,-0.0,0.95,0.23,0.79,-1.13,0.06,11.81,-27.44,13.57,2
1549833,-0.0,0.95,0.23,0.83,-1.13,0.08,11.81,-27.44,13.57,2
1549844,-0.0,0.95,0.23,1.08,-1.05,0.1,11.81,-27.44,13.57,2
1549855,-0.0,0.95,0.23,1.2,-1.07,0.1,11.81,-27.44,13.57,2
1549866,-0.0,0.95,0.23,1.3,-1.04,0.12,11.8,-27.29,13.68,2
1549880,-0.0,0.95,0.23,1.43,-1.06,0.13,11.8,-27.29,13.68,2
1549890,-0.0,0.95,0.23,1.41,-1.04,0.13,11.8,-27.29,13.68,2
1549900,-0.0,0.95,0.23,1.3,-1.07,0.13,11.8,-27.29,13.68,2
1549910,-0.0,0.95,0.23,1.12,-1.1,0.11,11.8,-27.29,13.68,2
1549923,-0.0,0.95,0.23,0.73,-1.11,0.16,11.87,-27.29,13.74,2
1549933,-0.0,0.95,0.23,0.71,-1.08,0.11,11.87,-27.29,13.74,2
1549943,-0.0,0.95,0.23,0.69,-1.06,0.09,11.87,-27.29,13.74,2
1549953,-0.0,0.95,0.23,0.74,-1.07,0.04,11.87,-27.29,13.74,2
1549963,-0.0,0.95,0.23,0.78,-1.05,0.05,11.87,-27.29,13.74,2
1549975,-0.0,0.95,0.23,0.82,-1.12,0.14,11.88,-27.26,13.85,2
1549987,-0.0,0.95,0.23,0.79,-1.11,0.11,11.88,-27.26,13.85,2
1550001,-0.0,0.95,0.23,0.79,-1.16,0.1,11.88,-27.26,13.85,2
1550011,-0.0,0.95,0.23,0.79,-1.19,0.12,11.88,-27.26,13.85,2
1550022,-0.0,0.95,0.22,0.86,-1.2,0.12,11.92,-27.28,13.93,2
1550032,-0.0,0.95,0.22,0.95,-1.16,0.11,11.92,-27.28,13.93,2
1550044,-0.0,0.95,0.23,1.15,-1.12,0.08,11.92,-27.28,13.93,2
1550054,-0.0,0.95,0.22,1.25,-1.15,0.09,11.92,-27.28,13.93,2
1550065,-0.0,0.95,0.22,1.32,-1.16,0.11,11.85,-27.36,14.08,2
1550076,-0.0,0.95,0.23,1.42,-1.21,0.15,11.85,-27.36,14.08,2
1550086,-0.0,0.95,0.23,1.34,-1.18,0.15,11.85,-27.36,14.08,2
1550097,-0.0,0.95,0.23,1.24,-1.16,0.14,11.85,-27.36,14.08,2
1550107,-0.0,0.95,0.23,1.2,-1.12,0.15,11.85,-27.36,14.08,2
1550119,-0.0,0.95,0.23,1.11,-1.2,0.09,11.86,-27.32,14.04,2
1550130,-0.0,0.95,0.22,1.22,-1.19,0.08,11.86,-27.32,14.04,2
1550140,-0.0,0.95,0.22,1.32,-1.12,0.06,11.86,-27.32,14.04,2
1550150,-0.0,0.95,0.22,1.45,-1.11,0.08,11.86,-27.32,14.04,2
1550160,-0.0,0.95,0.23,1.53,-1.15,0.1,11.86,-27.32,14.04,2
1550173,-0.0,0.95,0.23,1.54,-1.19,0.1,11.92,-27.21,13.96,2
1550183,-0.0,0.95,0.23,1.51,-1.16,0.09,11.92,-27.21,13.96,2
1550193,-0.0,0.95,0.23,1.5,-1.12,0.08,11.92,-27.21,13.96,2
1550203,-0.0,0.95,0.23,1.5,-1.09,0.09,11.92,-27.21,13.96,2
1550216,-0.0,0.95,0.23,1.48,-1.13,0.13,11.88,-27.18,14.08,2
1550226,-0.0,0.95,0.23,1.39,-1.15,0.11,11.88,-27.18,14.08,2
1550236,-0.0,0.95,0.23,1.27,-1.11,0.1,11.88,-27.18,14.08,2
1550246,-0.0,0.95,0.23,1.11,-1.11,0.09,11.88,-27.18,14.08,2
1550257,-0.0,0.95,0.22,0.91,-1.08,0.1,11.88,-27.18,14.08,2
1550268,-0.0,0.95,0.22,0.98,-1.06,0.14,12.02,-27.21,13.97,2
1550280,-0.0,0.95,0.22,1.02,-1.07,0.15,12.02,-27.21,13.97,2
1550292,-0.0,0.95,0.22,1.04,-1.16,0.05,12.02,-27.21,13.97,2
1550304,-0.0,0.95,0.22,1.09,-1.2,0.06,12.02,-27.21,13.97,2
1550315,-0.0,0.95,0.22,1.12,-1.18,0.1,11.88,-27.24,14.06,2
1550327,-0.0,0.95,0.22,1.21,-1.12,0.12,11.88,-27.24,14.06,2
1550337,-0.0,0.95,0.22,1.25,-1.06,0.11,11.88,-27.24,14.06,2
1550347,-0.0,0.95,0.22,1.36,-1.08,0.12,11.88,-27.24,14.06,2
1550357,-0.0,0.95,0.22,1.48,-1.1,0.14,11.88,-27.24,14.06,2
1550369,-0.0,0.95,0.22,1.62,-1.08,0.16,11.83,-27.31,13.99,2
1550381,-0.0,0.95,0.22,1.62,-1.09,0.14,11.83,-27.31,13.99,2
1550394,-0.0,0.95,0.23,1.54,-1.16,0.12,11.83,-27.31,13.99,2
1550405,-0.0,0.95,0.23,1.41,-1.16,0.14,11.83,-27.31,13.99,2
1550416,-0.0,0.95,0.23,1.28,-1.16,0.14,11.87,-27.37,14.05,2
1550426,-0.0,0.95,0.22,1.17,-1.17,0.14,11.87,-27.37,14.05,2
1550437,-0.0,0.95,0.22,1.09,-1.21,0.09,11.87,-27.37,14.05,2
1550448,-0.0,0.95,0.23,0.94,-1.24,0.13,11.87,-27.37,14.05,2
1550458,-0.0,0.95,0.23,0.84,-1.22,0.12,11.87,-27.37,14.05,2
1550469,-0.0,0.95,0.23,0.74,-1.25,0.09,11.72,-27.36,14.12,2
1550480,-0.0,0.95,0.23,0.44,-1.2,0.06,11.72,-27.36,14.12,2
1550491,-0.0,0.95,0.22,0.27,-1.22,0.05,11.72,-27.36,14.12,2
1550501,-0.0,0.95,0.22,0.17,-1.23,0.08,11.72,-27.36,14.12,2
1550511,-0.0,0.95,0.22,0.2,-1.23,0.07,11.72,-27.36,14.12,2
1550523,-0.0,0.95,0.22,0.28,-1.25,0.12,11.72,-27.34,14.25,2
1550533,-0.0,0.95,0.22,0.28,-1.21,0.08,11.72,-27.34,14.25,2
1550544,-0.0,0.95,0.22,0.29,-1.35,0.03,11.72,-27.34,14.25,2
1550554,-0.0,0.95,0.22,0.27,-1.66,-0.01,11.72,-27.34,14.25,2
1550565,-0.0,0.95,0.22,0.23,-2.09,-0.11,11.67,-27.35,14.25,2
1550576,-0.01,0.95,0.22,0.16,-2.43,-0.19,11.67,-27.35,14.25,2
1550587,-0.01,0.95,0.22,0.04,-2.76,-0.3,11.67,-27.35,14.25,2
1550598,-0.0,0.95,0.22,-0.18,-3.07,-0.38,11.67,-27.35,14.25,2
1550610,-0.01,0.94,0.23,-0.55,-3.91,-0.67,11.67,-27.35,14.25,2
1550621,0.0,0.95,0.22,-0.84,-4.65,-1.03,11.66,-27.23,14.19,2
1550633,0.0,0.95,0.22,-1.32,-4.4,-1.02,11.66,-27.23,14.19,2
1550645,0.0,0.95,0.22,-1.94,-3.02,-0.63,11.66,-27.23,14.19,2
1550657,0.0,0.95,0.22,-2.42,-2.6,-0.49,11.66,-27.23,14.19,2
1550669,0.0,0.95,0.21,-2.69,-1.99,-0.31,11.67,-27.19,14.3,2
1550680,0.0,0.95,0.21,-2.73,-1.81,-0.26,11.67,-27.19,14.3,2
1550690,-0.0,0.95,0.21,-2.73,-1.61,-0.23,11.67,-27.19,14.3,2
1550701,-0.0,0.95,0.21,-2.64,-1.47,-0.16,11.67,-27.19,14.3,2
1550715,-0.0,0.95,0.21,-2.25,-1.35,-0.07,11.71,-27.22,14.42,2
1550726,-0.0,0.95,0.2,-1.89,-1.3,0.01,11.71,-27.22,14.42,2
1550739,-0.0,0.95,0.2,-1.12,-1.17,0.03,11.71,-27.22,14.42,2
1550749,-0.0,0.95,0.2,-0.69,-1.14,0.04,11.71,-27.22,14.42,2
1550759,-0.0,0.95,0.21,-0.31,-1.1,0.07,11.71,-27.22,14.42,2
1550770,-0.0,0.95,0.21,-0.05,-1.09,0.09,11.65,-27.06,14.45,2
1550782,-0.0,0.95,0.21,0.11,-1.04,0.1,11.65,-27.06,14.45,2
1550794,-0.0,0.95,0.21,0.08,-1.04,0.1,11.65,-27.06,14.45,2
1550804,-0.0,0.95,0.21,0.04,-1.06,0.09,11.65,-27.06,14.45,2
1550816,-0.0,0.95,0.21,-0.06,-1.1,0.12,11.57,-26.96,14.71,2
1550827,-0.0,0.95,0.21,-0.13,-1.13,0.14,11.57,-26.96,14.71,2
1550838,-0.0,0.95,0.21,-0.22,-1.08,0.14,11.57,-26.96,14.71,2
1550850,-0.0,0.95,0.2,-0.24,-1.09,0.16,11.57,-26.96,14.71,2
1550861,-0.0,0.95,0.21,-0.27,-1.09,0.15,11.57,-26.96,14.71,2
1550872,-0.0,0.95,0.2,-0.3,-1.12,0.16,11.57,-26.72,14.9,2
1550882,-0.0,0.95,0.2,-0.28,-1.17,0.15,11.57,-26.72,14.9,2
1550894,-0.0,0.95,0.2,-0.35,-1.18,0.06,11.57,-26.72,14.9,2
1550905,-0.0,0.95,0.2,-0.34,-1.18,0.06,11.57,-26.72,14.9,2
1550917,-0.0,0.95,0.2,-0.14,-1.12,0.11,11.57,-26.72,14.88,2
1550929,-0.0,0.95,0.2,-0.03,-1.09,0.11,11.57,-26.72,14.88,2
1550939,-0.0,0.95,0.2,0.1,-1.08,0.07,11.57,-26.72,14.88,2
1550949,-0.0,0.95,0.2,0.25,-1.12,0.08,11.57,-26.72,14.88,2
1550959,-0.0,0.95,0.2,0.36,-1.13,0.09,11.57,-26.72,14.88,2
1550972,-0.0,0.95,0.2,0.52,-1.14,0.09,11.59,-26.67,15.15,2
1550983,-0.0,0.95,0.2,0.55,-1.13,0.12,11.59,-26.67,15.15,2
1550997,-0.0,0.95,0.2,0.55,-1.13,0.13,11.59,-26.67,15.15,2
1551007,-0.0,0.95,0.2,0.51,-1.17,0.16,11.59,-26.67,15.15,2
1551018,-0.0,0.95,0.2,0.47,-1.19,0.16,11.6,-26.69,15.21,2
1551028,-0.0,0.95,0.2,0.39,-1.16,0.17,11.6,-26.69,15.21,2
1551040,-0.0,0.95,0.2,0.18,-1.14,0.1,11.6,-26.69,15.21,2
1551051,-0.0,0.95,0.2,0.12,-1.13,0.07,11.6,-26.69,15.21,2
1551066,-0.0,0.95,0.2,-0.11,-1.18,0.07,11.61,-26.82,15.25,2
1551078,-0.0,0.95,0.2,-0.15,-1.18,0.09,11.61,-26.82,15.25,2
1551091,-0.0,0.95,0.2,-0.24,-1.14,0.07,11.61,-26.82,15.25,2
1551103,-0.0,0.95,0.2,-0.27,-1.13,0.08,11.61,-26.82,15.25,2
1551115,-0.0,0.95,0.2,-0.41,-1.12,0.1,11.52,-26.85,15.2,2
1551126,-0.0,0.95,0.2,-0.55,-1.09,0.1,11.52,-26.85,15.2,2
1551138,-0.0,0.95,0.2,-0.7,-1.05,0.05,11.52,-26.85,15.2,2
1551151,-0.0,0.95,0.2,-0.92,-1.12,0.06,11.52,-26.85,15.2,2
1551162,-0.0,0.95,0.2,-0.98,-1.14,0.09,11.61,-26.8,15.33,2
1551175,-0.0,0.95,0.2,-1.28,-1.18,0.05,11.61,-26.8,15.33,2
1551186,-0.0,0.95,0.2,-1.56,-1.18,0.0,11.61,-26.8,15.33,2
1551198,-0.0,0.95,0.2,-1.81,-1.21,0.01,11.61,-26.8,15.33,2
1551212,-0.0,0.95,0.19,-2.21,-1.19,0.04,11.61,-26.86,15.25,2
1551224,-0.0,0.95,0.19,-2.4,-1.17,0.06,11.61,-26.86,15.25,2
1551235,-0.0,0.95,0.19,-2.89,-1.14,0.06,11.61,-26.86,15.25,2
1551246,-0.0,0.96,0.19,-3.13,-1.09,0.03,11.61,-26.86,15.25,2
1551258,-0.0,0.96,0.19,-3.33,-1.05,0.03,11.61,-26.86,15.25,2
1551271,-0.0,0.96,0.18,-3.42,-1.06,0.05,11.67,-26.89,15.43,2
1551283,-0.0,0.96,0.18,-3.34,-1.04,0.03,11.67,-26.89,15.43,2
1551295,-0.0,0.96,0.18,-2.98,-1.09,0.03,11.67,-26.89,15.43,2
1551307,-0.0,0.96,0.18,-2.85,-1.09,0.02,11.67,-26.89,15.43,2
1551318,-0.0,0.96,0.18,-2.68,-1.07,0.02,11.71,-26.86,15.62,2
1551328,-0.0,0.96,0.18,-2.51,-1.06,0.03,11.71,-26.86,15.62,2
1551340,-0.0,0.96,0.17,-2.03,-1.04,0.02,11.71,-26.86,15.62,2
1551350,-0.0,0.96,0.17,-1.61,-1.04,0.04,11.71,-26.86,15.62,2
1551362,-0.0,0.96,0.17,-1.12,-1.06,0.06,11.7,-26.87,15.75,2
1551374,-0.0,0.96,0.17,-0.27,-1.06,0.07,11.7,-26.87,15.75,2
1551386,-0.0,0.96,0.18,-0.03,-1.07,0.03,11.7,-26.87,15.75,2
1551400,-0.0,0.96,0.18,0.21,-1.07,0.09,11.7,-26.87,15.75,2
1551410,-0.0,0.96,0.18,0.27,-1.09,0.07,11.7,-26.87,15.75,2
1551421,-0.0,0.96,0.18,0.29,-1.09,0.09,11.66,-26.78,15.88,2
1551431,-0.0,0.96,0.18,0.28,-1.11,0.09,11.66,-26.78,15.88,2
1551443,-0.0,0.96,0.17,0.4,-1.14,0.12,11.66,-26.78,15.88,2
1551453,-0.0,0.96,0.18,0.45,-1.15,0.15,11.66,-26.78,15.88,2
1551464,-0.0,0.96,0.18,0.45,-1.14,0.14,11.58,-26.64,16.08,2
1551477,-0.0,0.96,0.18,0.41,-1.16,0.13,11.58,-26.64,16.08,2
1551489,-0.0,0.96,0.17,0.35,-1.17,0.08,11.58,-26.64,16.08,2
1551501,-0.0,0.96,0.17,0.32,-1.11,0.12,11.58,-26.64,16.08,2
1551513,-0.0,0.96,0.17,0.33,-1.16,0.09,11.54,-26.69,16.08,2
1551525,-0.0,0.96,0.17,0.39,-1.15,0.11,11.54,-26.69,16.08,2
1551536,-0.0,0.96,0.17,0.5,-1.09,0.12,11.54,-26.69,16.08,2
1551547,-0.0,0.96,0.17,0.56,-1.12,0.12,11.54,-26.69,16.08,2
1551558,-0.0,0.96,0.17,0.57,-1.13,0.12,11.54,-26.69,16.08,2
1551571,-0.0,0.96,0.17,0.49,-1.14,0.05,11.56,-26.64,16.19,2
1551582,-0.0,0.96,0.17,0.4,-1.15,0.04,11.56,-26.64,16.19,2
1551592,-0.0,0.96,0.17,0.34,-1.14,0.03,11.56,-26.64,16.19,2
1551604,-0.0,0.96,0.17,0.51,-1.15,0.06,11.56,-26.64,16.19,2
1551616,-0.0,0.96,0.17,0.64,-1.15,0.09,11.53,-26.66,16.28,2
1551628,-0.0,0.96,0.17,0.74,-1.16,0.11,11.53,-26.66,16.28,2
1551639,-0.0,0.96,0.17,0.81,-1.13,0.09,11.53,-26.66,16.28,2
1551650,-0.0,0.96,0.17,0.79,-1.11,0.14,11.53,-26.66,16.28,2
1551660,-0.0,0.96,0.17,0.78,-1.11,0.12,11.53,-26.66,16.28,2
1551671,-0.0,0.96,0.17,0.78,-1.16,0.12,11.47,-26.62,16.49,2
1551682,-0.0,0.96,0.17,0.92,-1.07,0.06,11.47,-26.62,16.49,2
1551693,-0.0,0.96,0.17,1.1,-1.05,0.09,11.47,-26.62,16.49,2
1551703,-0.0,0.96,0.17,1.24,-1.04,0.1,11.47,-26.62,16.49,2
1551714,-0.0,0.96,0.17,1.34,-1.06,0.11,11.45,-26.57,16.75,2
1551725,-0.0,0.96,0.17,1.31,-1.06,0.05,11.45,-26.57,16.75,2
1551735,-0.0,0.96,0.17,1.13,-1.05,-0.01,11.45,-26.57,16.75,2
1551746,-0.0,0.96,0.17,0.99,-1.05,-0.02,11.45,-26.57,16.75,2
1551757,-0.0,0.96,0.17,0.92,-1.06,-0.0,11.45,-26.57,16.75,2
1551770,-0.0,0.96,0.17,0.92,-1.09,0.07,11.47,-26.53,16.69,2
1551782,-0.0,0.96,0.17,0.97,-1.08,0.09,11.47,-26.53,16.69,2
1551795,-0.0,0.96,0.17,1.15,-1.11,0.14,11.47,-26.53,16.69,2
1551807,-0.0,0.96,0.17,1.25,-1.11,0.19,11.47,-26.53,16.69,2
1551818,-0.0,0.96,0.17,1.28,-1.11,0.17,11.44,-26.52,16.76,2
1551830,-0.0,0.96,0.17,1.12,-1.06,0.16,11.44,-26.52,16.76,2
1551840,-0.0,0.96,0.17,1.01,-1.09,0.15,11.44,-26.52,16.76,2
1551850,-0.0,0.96,0.17,0.95,-1.16,0.16,11.44,-26.52,16.76,2
1551860,-0.0,0.96,0.17,0.87,-1.17,0.15,11.44,-26.52,16.76,2
1551873,-0.0,0.96,0.17,0.84,-1.1,0.12,11.54,-26.55,16.8,2
1551884,-0.0,0.96,0.17,0.88,-1.1,0.09,11.54,-26.55,16.8,2
1551898,-0.0,0.96,0.17,0.98,-1.15,0.07,11.54,-26.55,16.8,2
1551908,-0.0,0.96,0.17,0.99,-1.11,0.07,11.54,-26.55,16.8,2
1551919,-0.0,0.96,0.17,0.92,-1.1,0.09,11.53,-26.59,16.67,2
1551929,-0.0,0.96,0.17,0.81,-1.12,0.1,11.53,-26.59,16.67,2
1551941,-0.0,0.96,0.17,0.56,-1.1,0.1,11.53,-26.59,16.67,2
1551951,-0.0,0.96,0.17,0.49,-1.1,0.1,11.53,-26.59,16.67,2
1551962,-0.0,0.96,0.17,0.45,-1.13,0.09,11.59,-26.62,16.68,2
1551972,-0.0,0.96,0.17,0.5,-1.12,0.11,11.59,-26.62,16.68,2
1551984,-0.0,0.96,0.17,0.68,-1.15,0.11,11.59,-26.62,16.68,2
1551995,-0.0,0.96,0.17,0.77,-1.19,0.15,11.59,-26.62,16.68,2
1552008,-0.0,0.96,0.17,0.77,-1.15,0.14,11.59,-26.62,16.68,2
1552020,-0.0,0.96,0.17,0.63,-1.12,0.14,11.56,-26.67,16.65,2
1552030,-0.0,0.96,0.17,0.33,-1.09,0.11,11.56,-26.67,16.65,2
1552040,-0.0,0.96,0.17,-0.03,-1.08,0.08,11.56,-26.67,16.65,2
1552051,-0.0,0.96,0.17,-0.55,-1.11,0.06,11.56,-26.67,16.65,2
1552063,-0.0,0.96,0.16,-0.7,-1.08,0.05,11.57,-26.57,16.49,2
1552074,-0.0,0.96,0.16,-0.73,-1.06,0.04,11.57,-26.57,16.49,2
1552085,-0.0,0.96,0.16,-0.99,-1.0,0.04,11.57,-26.57,16.49,2
1552097,-0.0,0.96,0.16,-1.11,-1.06,0.05,11.57,-26.57,16.49,2
1552107,-0.0,0.96,0.16,-1.25,-1.07,0.04,11.57,-26.57,16.49,2
1552118,-0.0,0.96,0.16,-1.34,-1.06,0.06,11.61,-26.47,16.6,2
1552130,-0.0,0.96,0.16,-1.39,-1.04,0.07,11.61,-26.47,16.6,2
1552140,-0.0,0.96,0.16,-1.33,-1.04,0.07,11.61,-26.47,16.6,2
1552150,-0.0,0.96,0.16,-1.16,-1.05,0.08,11.61,-26.47,16.6,2
1552161,-0.0,0.96,0.16,-0.9,-1.08,0.08,11.64,-26.43,16.78,2
1552173,-0.0,0.96,0.16,-0.48,-1.06,0.05,11.64,-26.43,16.78,2
1552185,-0.0,0.96,0.16,-0.38,-1.03,0.01,11.64,-26.43,16.78,2
1552195,-0.0,0.96,0.16,-0.21,-1.1,0.03,11.64,-26.43,16.78,2
1552206,-0.0,0.96,0.15,0.23,-1.18,0.04,11.64,-26.43,16.78,2
1552218,-0.0,0.96,0.15,0.5,-1.18,0.03,11.73,-26.38,16.86,2
1552228,-0.0,0.96,0.15,0.78,-1.15,0.04,11.73,-26.38,16.86,2
1552238,-0.0,0.96,0.16,1.02,-1.12,0.02,11.73,-26.38,16.86,2
1552249,-0.0,0.96,0.16,1.31,-1.11,0.04,11.73,-26.38,16.86,2
1552261,-0.0,0.96,0.16,1.36,-1.11,0.08,11.75,-26.26,16.87,2
1552271,-0.0,0.96,0.16,1.32,-1.13,0.09,11.75,-26.26,16.87,2
1552284,-0.0,0.96,0.16,1.12,-1.03,0.03,11.75,-26.26,16.87,2
1552296,-0.0,0.96,0.16,1.06,-1.05,0.05,11.75,-26.26,16.87,2
1552309,-0.0,0.96,0.16,1.02,-1.13,0.09,11.75,-26.26,16.87,2
1552321,-0.0,0.96,0.16,1.15,-1.19,0.08,11.79,-26.21,16.94,2
1552331,-0.0,0.96,0.16,1.26,-1.14,0.08,11.79,-26.21,16.94,2
1552341,-0.0,0.96,0.16,1.29,-1.11,0.09,11.79,-26.21,16.94,2
1552352,-0.0,0.96,0.16,1.32,-1.13,0.13,11.79,-26.21,16.94,2
1552364,-0.0,0.96,0.16,1.39,-1.09,0.13,11.7,-26.16,17.05,2
1552374,-0.0,0.96,0.15,1.49,-1.11,0.11,11.7,-26.16,17.05,2
1552384,-0.0,0.96,0.15,1.63,-1.09,0.11,11.7,-26.16,17.05,2
1552395,-0.0,0.96,0.15,1.86,-1.13,0.13,11.7,-26.16,17.05,2
1552406,-0.0,0.96,0.16,1.91,-1.15,0.13,11.7,-26.16,17.05,2
1552417,-0.0,0.96,0.16,1.84,-1.19,0.13,11.62,-26.22,16.88,2
1552427,-0.0,0.96,0.16,1.69,-1.2,0.11,11.62,-26.22,16.88,2
1552439,-0.0,0.96,0.16,1.39,-1.17,0.14,11.62,-26.22,16.88,2
1552449,-0.0,0.96,0.16,1.27,-1.16,0.12,11.62,-26.22,16.88,2
1552459,-0.0,0.96,0.16,1.16,-1.16,0.12,11.62,-26.22,16.88,2
1552470,-0.0,0.96,0.16,1.07,-1.19,0.1,11.54,-26.14,16.94,2
1552482,-0.0,0.96,0.15,1.04,-1.11,0.07,11.54,-26.14,16.94,2
1552492,-0.0,0.96,0.16,1.11,-1.11,0.08,11.54,-26.14,16.94,2
1552502,-0.0,0.96,0.15,1.17,-1.16,0.09,11.54,-26.14,16.94,2
1552513,-0.0,0.96,0.15,1.21,-1.16,0.1,11.51,-26.09,16.8,2
1552525,-0.0,0.96,0.15,1.41,-1.14,0.1,11.51,-26.09,16.8,2
1552535,-0.0,0.96,0.15,1.49,-1.1,0.08,11.51,-26.09,16.8,2
1552546,-0.0,0.96,0.16,1.57,-1.12,0.08,11.51,-26.09,16.8,2
1552561,-0.0,0.96,0.16,1.59,-1.13,0.08,11.47,-26.1,16.82,2
1552571,-0.0,0.96,0.16,1.55,-1.15,0.12,11.47,-26.1,16.82,2
1552583,-0.0,0.96,0.16,1.39,-1.17,0.11,11.47,-26.1,16.82,2
1552595,-0.0,0.96,0.16,1.29,-1.15,0.08,11.47,-26.1,16.82,2
1552605,-0.0,0.96,0.16,1.19,-1.13,0.05,11.47,-26.1,16.82,2
1552616,-0.0,0.96,0.16,1.13,-1.16,0.04,11.46,-26.08,16.87,2
1552628,-0.0,0.96,0.15,1.11,-1.17,0.03,11.46,-26.08,16.87,2
1552639,-0.0,0.96,0.15,1.18,-1.15,0.04,11.46,-26.08,16.87,2
1552651,-0.0,0.96,0.15,1.23,-1.14,0.06,11.46,-26.08,16.87,2
1552664,-0.0,0.96,0.16,1.33,-1.15,0.1,11.45,-26.0,16.87,2
1552674,-0.0,0.96,0.16,1.33,-1.14,0.09,11.45,-26.0,16.87,2
1552684,-0.0,0.96,0.16,1.19,-1.14,0.05,11.45,-26.0,16.87,2
1552694,-0.0,0.96,0.16,1.1,-1.13,0.05,11.45,-26.0,16.87,2
1552706,-0.0,0.96,0.16,0.87,-1.1,0.02,11.45,-26.0,16.87,2
1552717,-0.0,0.96,0.16,0.77,-1.08,0.01,11.46,-25.99,17.02,2
1552727,-0.0,0.96,0.16,0.68,-1.09,0.04,11.46,-25.99,17.02,2
1552737,-0.0,0.96,0.16,0.6,-1.06,0.02,11.46,-25.99,17.02,2
1552749,-0.0,0.96,0.15,0.51,-1.06,0.04,11.46,-25.99,17.02,2
1552760,-0.0,0.96,0.16,0.53,-1.02,0.04,11.43,-25.98,17.0,2
1552770,-0.0,0.96,0.16,0.47,-1.04,0.02,11.43,-25.98,17.0,2
1552781,-0.0,0.96,0.15,0.27,-1.06,0.03,11.43,-25.98,17.0,2
1552792,-0.0,0.96,0.15,0.22,-1.07,0.06,11.43,-25.98,17.0,2
1552802,-0.0,0.96,0.15,0.19,-1.06,0.09,11.43,-25.98,17.0,2
1552812,-0.0,0.96,0.15,0.13,-1.07,0.12,11.53,-26.01,17.12,2
1552826,-0.0,0.96,0.16,-0.14,-1.0,0.12,11.53,-26.01,17.12,2
1552838,-0.0,0.96,0.16,-0.38,-0.96,0.07,11.53,-26.01,17.12,2
1552851,-0.0,0.96,0.15,-0.84,-1.02,0.08,11.53,-26.01,17.12,2
1552863,-0.0,0.96,0.15,-1.02,-1.02,0.05,11.47,-25.99,17.06,2
1552873,-0.0,0.96,0.15,-1.21,-1.04,0.05,11.47,-25.99,17.06,2
1552884,-0.0,0.96,0.15,-1.77,-0.98,0.06,11.47,-25.99,17.06,2
1552895,-0.0,0.96,0.15,-1.77,-0.99,0.07,11.47,-25.99,17.06,2
1552906,-0.0,0.96,0.15,-1.66,-1.0,0.08,11.47,-25.99,17.06,2
1552918,-0.0,0.96,0.14,-1.37,-1.07,0.13,11.48,-25.86,17.08,2
1552929,-0.0,0.96,0.14,-1.18,-1.04,0.1,11.48,-25.86,17.08,2
1552941,-0.0,0.97,0.14,-0.94,-1.05,0.12,11.48,-25.86,17.08,2
1552955,-0.0,0.97,0.14,-0.21,-1.09,0.1,11.48,-25.86,17.08,2
1552966,-0.0,0.97,0.14,0.16,-1.1,0.09,11.48,-25.76,17.04,2
1552978,-0.0,0.97,0.14,0.6,-1.06,0.08,11.48,-25.76,17.04,2
1552989,-0.0,0.96,0.14,0.7,-1.05,0.09,11.48,-25.76,17.04,2
1553001,-0.0,0.96,0.14,0.73,-1.06,0.05,11.48,-25.76,17.04,2
1553014,-0.0,0.96,0.14,0.58,-1.07,0.07,11.4,-25.75,17.02,2
1553026,-0.0,0.96,0.14,0.49,-1.07,0.11,11.4,-25.75,17.02,2
1553036,-0.0,0.96,0.14,0.41,-1.06,0.08,11.4,-25.75,17.02,2
1553046,-0.0,0.96,0.14,0.4,-1.08,0.08,11.4,-25.75,17.02,2
1553058,-0.0,0.96,0.14,0.32,-1.08,-0.0,11.4,-25.75,17.02,2
1553069,-0.0,0.96,0.14,0.29,-1.05,-0.0,11.47,-25.79,16.98,2
1553081,-0.0,0.96,0.14,0.26,-1.03,0.02,11.47,-25.79,16.98,2
1553092,-0.0,0.96,0.14,0.3,-1.06,0.03,11.47,-25.79,16.98,2
1553104,-0.0,0.96,0.14,0.36,-1.08,0.02,11.47,-25.79,16.98,2
1553116,-0.0,0.96,0.14,0.49,-1.12,0.05,11.46,-25.84,17.03,2
1553127,-0.0,0.97,0.14,0.6,-1.13,0.04,11.46,-25.84,17.03,2
1553138,-0.0,0.97,0.14,0.73,-1.11,0.05,11.46,-25.84,17.03,2
1553152,-0.0,0.97,0.14,1.0,-1.15,0.09,11.46,-25.84,17.03,2
1553163,-0.0,0.97,0.14,1.13,-1.14,0.09,11.46,-25.69,17.15,2
1553174,-0.0,0.96,0.14,1.23,-1.11,0.09,11.46,-25.69,17.15,2
1553186,-0.0,0.96,0.14,1.27,-1.17,0.05,11.46,-25.69,17.15,2
1553198,-0.0,0.97,0.14,1.25,-1.17,0.03,11.46,-25.69,17.15,2
1553209,-0.0,0.97,0.14,1.23,-1.22,0.03,11.45,-25.7,17.2,2
1553221,-0.0,0.97,0.14,1.54,-1.23,0.04,11.45,-25.7,17.2,2
1553232,-0.0,0.97,0.14,1.67,-1.2,0.02,11.45,-25.7,17.2,2
1553246,-0.0,0.96,0.14,1.75,-1.14,0.06,11.45,-25.7,17.2,2
1553257,-0.0,0.96,0.14,1.66,-1.14,0.09,11.45,-25.7,17.2,2
1553268,-0.0,0.96,0.14,1.55,-1.15,0.07,11.38,-25.67,17.19,2
1553280,-0.0,0.97,0.14,1.43,-1.06,0.01,11.38,-25.67,17.19,2
1553292,-0.0,0.97,0.14,1.45,-1.06,0.05,11.38,-25.67,17.19,2
1553304,-0.0,0.97,0.14,1.54,-1.08,0.09,11.38,-25.67,17.19,2
1553316,-0.0,0.97,0.14,1.55,-1.09,0.08,11.45,-25.72,17.26,2
1553327,-0.0,0.96,0.14,1.56,-1.06,0.08,11.45,-25.72,17.26,2
1553337,-0.0,0.96,0.14,1.51,-1.06,0.05,11.45,-25.72,17.26,2
1553348,-0.0,0.96,0.14,1.57,-1.11,0.11,11.45,-25.72,17.26,2
1553360,-0.0,0.97,0.14,1.63,-1.11,0.13,11.53,-25.67,17.25,2
1553370,-0.0,0.97,0.14,1.67,-1.08,0.13,11.53,-25.67,17.25,2
1553383,-0.0,0.97,0.14,1.83,-0.98,0.11,11.53,-25.67,17.25,2
1553395,-0.0,0.97,0.14,1.94,-0.99,0.13,11.53,-25.67,17.25,2
1553408,-0.0,0.96,0.14,1.88,-1.05,0.15,11.44,-25.64,17.35,2
1553419,-0.0,0.96,0.14,1.8,-1.06,0.15,11.44,-25.64,17.35,2
1553429,-0.0,0.96,0.14,1.69,-1.03,0.14,11.44,-25.64,17.35,2
1553440,-0.0,0.96,0.14,1.64,-1.03,0.11,11.44,-25.64,17.35,2
1553452,-0.0,0.97,0.14,1.54,-1.09,0.11,11.44,-25.64,17.35,2
1553463,-0.0,0.97,0.14,1.52,-1.11,0.12,11.53,-25.64,17.38,2
1553475,-0.0,0.97,0.14,1.54,-1.12,0.12,11.53,-25.64,17.38,2
1553487,-0.0,0.96,0.14,1.54,-1.08,0.11,11.53,-25.64,17.38,2
1553498,-0.0,0.96,0.14,1.53,-1.12,0.13,11.53,-25.64,17.38,2
1553509,-0.0,0.96,0.14,1.49,-1.15,0.11,11.48,-25.6,17.3,2
1553521,-0.0,0.97,0.14,1.36,-1.1,0.15,11.48,-25.6,17.3,2
1553533,-0.0,0.97,0.14,1.37,-1.05,0.13,11.48,-25.6,17.3,2
1553546,-0.0,0.97,0.14,1.66,-1.06,0.12,11.48,-25.6,17.3,2
1553557,-0.0,0.96,0.14,1.84,-1.07,0.15,11.48,-25.6,17.3,2
1553568,-0.0,0.96,0.14,1.89,-1.09,0.13,11.49,-25.68,17.43,2
1553581,-0.0,0.96,0.14,1.73,-1.11,0.1,11.49,-25.68,17.43,2
1553593,-0.0,0.96,0.14,1.54,-1.1,0.11,11.49,-25.68,17.43,2
1553605,-0.0,0.96,0.14,1.1,-1.13,0.14,11.49,-25.68,17.43,2
1553617,-0.0,0.96,0.14,0.98,-1.13,0.16,11.39,-25.66,17.29,2
1553629,-0.0,0.96,0.14,0.86,-1.09,0.15,11.39,-25.66,17.29,2
1553640,-0.0,0.96,0.14,0.91,-1.12,0.16,11.39,-25.66,17.29,2
1553651,-0.0,0.96,0.14,1.11,-1.17,0.15,11.39,-25.66,17.29,2
1553662,-0.0,0.96,0.14,1.34,-1.16,0.17,11.5,-25.6,17.49,2
1553675,-0.0,0.96,0.14,1.31,-1.09,0.15,11.5,-25.6,17.49,2
1553687,-0.0,0.96,0.14,1.17,-1.07,0.14,11.5,-25.6,17.49,2
1553699,-0.0,0.96,0.14,0.76,-1.01,0.15,11.5,-25.6,17.49,2
1553711,-0.0,0.96,0.14,0.62,-0.99,0.16,11.44,-25.65,17.58,2
1553723,-0.0,0.96,0.14,0.54,-1.0,0.16,11.44,-25.65,17.58,2
1553734,-0.0,0.96,0.14,0.58,-0.99,0.14,11.44,-25.65,17.58,2
1553745,-0.0,0.96,0.14,0.63,-1.03,0.13,11.44,-25.65,17.58,2
1553758,-0.0,0.96,0.14,0.61,-1.02,0.12,11.48,-25.69,17.75,2
1553770,-0.0,0.96,0.14,0.43,-1.04,0.12,11.48,-25.69,17.75,2
1553780,-0.0,0.97,0.14,0.17,-0.98,0.07,11.48,-25.69,17.75,2
1553790,-0.01,0.97,0.14,0.2,-0.94,0.05,11.48,-25.69,17.75,2
1553800,-0.01,0.96,0.14,0.29,-0.11,0.17,11.48,-25.69,17.75,2
1553813,0.0,0.96,0.14,-0.26,1.49,0.36,11.5,-25.77,17.94,2
1553824,0.0,0.96,0.14,-0.43,1.08,0.32,11.5,-25.77,17.94,2
1553836,-0.0,0.96,0.14,-0.58,0.81,0.26,11.5,-25.77,17.94,2
1553848,0.0,0.96,0.14,-1.24,1.4,0.35,11.5,-25.77,17.94,2
1553859,0.0,0.97,0.14,-1.65,1.48,0.37,11.49,-25.83,17.92,2
1553871,0.0,0.97,0.13,-1.64,0.69,0.24,11.49,-25.83,17.92,2
1553882,0.0,0.97,0.13,-1.45,0.4,0.19,11.49,-25.83,17.92,2
1553894,0.0,0.97,0.13,-1.27,0.13,0.15,11.49,-25.83,17.92,2
1553908,-0.0,0.97,0.13,-0.73,-0.24,0.15,11.47,-25.85,18.09,2
1553920,-0.0,0.97,0.13,-0.35,-0.39,0.14,11.47,-25.85,18.09,2
1553934,-0.0,0.97,0.13,0.34,-0.63,0.08,11.47,-25.85,18.09,2
1553944,-0.0,0.97,0.13,0.62,-0.78,0.07,11.47,-25.85,18.09,2
1553955,-0.0,0.97,0.13,0.78,-0.81,0.11,11.47,-25.85,18.09,2
1553968,-0.0,0.97,0.13,0.89,-0.91,0.12,11.41,-25.91,18.25,2
1553980,-0.0,0.97,0.13,0.94,-0.93,0.1,11.41,-25.91,18.25,2
1553993,-0.0,0.97,0.13,0.95,-0.98,0.09,11.41,-25.91,18.25,2
1554005,-0.0,0.97,0.13,0.93,-0.98,0.08,11.41,-25.91,18.25,2
1554016,-0.0,0.97,0.13,0.92,-1.02,0.11,11.32,-25.84,18.27,2
1554028,-0.0,0.97,0.13,0.89,-1.02,0.11,11.32,-25.84,18.27,2
1554039,-0.0,0.97,0.13,0.8,-1.01,0.15,11.32,-25.84,18.27,2
1554052,-0.0,0.97,0.13,0.66,-1.02,0.14,11.32,-25.84,18.27,2
1554064,-0.0,0.97,0.13,0.62,-1.01,0.12,11.22,-25.7,18.16,2
1554075,-0.0,0.97,0.13,0.63,-0.99,0.09,11.22,-25.7,18.16,2
1554086,-0.0,0.97,0.13,0.62,-0.95,0.1,11.22,-25.7,18.16,2
1554097,-0.0,0.97,0.13,0.55,-0.93,0.13,11.22,-25.7,18.16,2
1554108,-0.0,0.97,0.13,0.51,-0.94,0.11,11.2,-25.78,18.21,2
1554122,-0.0,0.97,0.13,0.5,-0.97,0.1,11.2,-25.78,18.21,2
1554133,-0.0,0.97,0.13,0.51,-0.98,0.09,11.2,-25.78,18.21,2
1554146,-0.0,0.97,0.12,0.67,-1.02,0.09,11.2,-25.78,18.21,2
1554158,-0.0,0.97,0.12,0.87,-0.99,0.11,11.08,-25.69,18.3,2
1554169,-0.0,0.97,0.12,1.01,-0.96,0.1,11.08,-25.69,18.3,2
1554181,-0.0,0.97,0.13,1.2,-0.93,0.05,11.08,-25.69,18.3,2
1554192,-0.0,0.97,0.13,1.23,-0.97,0.09,11.08,-25.69,18.3,2
1554202,-0.0,0.97,0.13,1.28,-1.02,0.1,11.08,-25.69,18.3,2
1554213,-0.0,0.97,0.13,1.34,-1.09,0.09,11.15,-25.68,18.4,2
1554224,-0.0,0.97,0.12,1.47,-1.01,0.04,11.15,-25.68,18.4,2
1554235,-0.0,0.97,0.12,1.58,-1.01,0.03,11.15,-25.68,18.4,2
1554245,-0.0,0.97,0.13,1.74,-1.0,0.07,11.15,-25.68,18.4,2
1554255,-0.0,0.97,0.13,1.78,-1.02,0.06,11.15,-25.68,18.4,2
1554267,-0.0,0.97,0.13,1.4,-1.01,0.05,11.18,-25.56,18.29,2
1554278,-0.01,0.97,0.13,1.13,-0.84,0.05,11.18,-25.56,18.29,2
1554288,-0.02,0.96,0.13,0.8,-0.2,0.16,11.18,-25.56,18.29,2
1554298,-0.01,0.97,0.13,0.14,1.29,0.46,11.18,-25.56,18.29,2
1554310,0.0,0.97,0.13,-0.84,2.03,0.61,11.17,-25.49,18.25,2
1554321,-0.01,0.96,0.14,-0.64,1.59,0.51,11.17,-25.49,18.25,2
1554331,-0.01,0.97,0.13,-0.66,1.97,0.59,11.17,-25.49,18.25,2
1554341,-0.0,0.97,0.13,-0.8,2.49,0.74,11.17,-25.49,18.25,2
1554351,-0.01,0.97,0.13,-0.85,2.94,0.83,11.17,-25.49,18.25,2
1554364,-0.0,0.97,0.13,-0.49,3.92,1.04,11.17,-25.48,18.37,2
1554374,0.0,0.97,0.12,-0.49,3.77,1.0,11.17,-25.48,18.37,2
1554384,0.0,0.97,0.12,-0.29,3.35,0.9,11.17,-25.48,18.37,2
1554394,0.0,0.97,0.12,0.02,2.82,0.78,11.17,-25.48,18.37,2
1554405,0.0,0.97,0.12,0.58,1.44,0.55,11.17,-25.48,18.37,2
1554416,0.0,0.97,0.12,0.83,0.96,0.44,10.99,-25.35,18.51,2
1554428,0.0,0.97,0.12,0.97,0.57,0.34,10.99,-25.35,18.51,2
1554440,-0.0,0.97,0.12,0.97,-0.07,0.22,10.99,-25.35,18.51,2
1554450,-0.0,0.97,0.12,0.91,-0.26,0.19,10.99,-25.35,18.51,2
1554461,-0.0,0.97,0.12,0.8,-0.31,0.16,10.94,-25.32,18.62,2
1554474,-0.0,0.97,0.12,0.57,-0.18,0.2,10.94,-25.32,18.62,2
1554486,-0.0,0.97,0.12,0.44,-0.29,0.15,10.94,-25.32,18.62,2
1554498,-0.0,0.97,0.12,0.14,-0.51,0.17,10.94,-25.32,18.62,2
1554510,-0.0,0.97,0.12,-0.3,-0.5,0.14,10.91,-25.18,18.77,2
1554522,-0.0,0.97,0.12,-0.73,-0.51,0.14,10.91,-25.18,18.77,2
1554534,-0.0,0.97,0.11,-0.56,-0.66,0.07,10.91,-25.18,18.77,2
1554546,-0.0,0.97,0.11,-0.17,-0.76,0.08,10.91,-25.18,18.77,2
1554557,-0.0,0.97,0.11,0.25,-0.82,0.08,10.83,-25.25,18.68,2
1554569,-0.0,0.97,0.12,0.61,-0.34,0.18,10.83,-25.25,18.68,2
1554580,0.0,0.97,0.12,0.55,0.22,0.2,10.83,-25.25,18.68,2
1554593,0.0,0.97,0.11,0.58,0.24,0.18,10.83,-25.25,18.68,2
1554604,0.0,0.97,0.11,0.65,0.0,0.16,10.83,-25.25,18.68,2
1554615,0.0,0.97,0.11,0.8,-0.23,0.15,10.85,-25.17,18.55,2
1554625,0.0,0.97,0.11,1.06,-0.43,0.17,10.85,-25.17,18.55,2
1554635,0.0,0.97,0.11,1.62,-0.76,0.13,10.85,-25.17,18.55,2
1554646,-0.0,0.97,0.12,1.75,-0.83,0.14,10.85,-25.17,18.55,2
1554657,-0.0,0.97,0.12,1.74,-0.84,0.12,10.89,-25.22,18.59,2
1554670,-0.0,0.97,0.12,1.63,-0.89,0.1,10.89,-25.22,18.59,2
1554681,-0.0,0.97,0.12,1.55,-0.91,0.09,10.89,-25.22,18.59,2
1554692,-0.0,0.97,0.12,1.51,-0.96,0.11,10.89,-25.22,18.59,2
1554707,-0.0,0.97,0.12,1.46,-1.05,0.13,10.85,-25.16,18.54,2
1554718,-0.0,0.97,0.12,1.38,-1.01,0.13,10.85,-25.16,18.54,2
1554732,-0.0,0.97,0.11,1.25,-1.0,0.06,10.85,-25.16,18.54,2
1554743,-0.0,0.97,0.11,1.34,-1.0,0.06,10.85,-25.16,18.54,2
1554757,-0.0,0.97,0.11,1.61,-1.06,0.08,10.84,-25.05,18.57,2
1554768,-0.0,0.97,0.12,1.63,-1.16,0.05,10.84,-25.05,18.57,2
1554779,-0.0,0.97,0.12,1.52,-1.16,0.01,10.84,-25.05,18.57,2
1554789,-0.0,0.97,0.12,1.37,-1.12,0.02,10.84,-25.05,18.57,2
1554801,-0.0,0.97,0.12,1.15,-1.16,0.01,10.84,-25.05,18.57,2
1554812,-0.0,0.97,0.11,1.12,-1.2,0.02,10.68,-25.12,18.51,2
1554822,-0.0,0.97,0.11,1.17,-1.25,0.03,10.68,-25.12,18.51,2
1554832,-0.0,0.97,0.11,1.2,-1.23,0.04,10.68,-25.12,18.51,2
1554844,-0.0,0.97,0.11,1.25,-1.25,0.07,10.68,-25.12,18.51,2
1554856,-0.0,0.97,0.11,1.32,-1.24,0.1,10.74,-25.08,18.37,2
1554867,-0.0,0.97,0.11,1.7,-1.19,0.13,10.74,-25.08,18.37,2
1554878,-0.0,0.97,0.11,1.84,-1.14,0.09,10.74,-25.08,18.37,2
1554890,-0.0,0.97,0.11,1.94,-1.1,0.07,10.74,-25.08,18.37,2
1554903,-0.0,0.97,0.12,2.14,-1.14,0.05,10.74,-25.08,18.37,2
1554914,-0.0,0.97,0.12,2.1,-1.12,0.05,10.66,-25.1,18.32,2
1554926,-0.0,0.97,0.12,1.92,-1.09,0.03,10.66,-25.1,18.32,2
1554938,-0.0,0.97,0.12,1.25,-1.0,0.02,10.66,-25.1,18.32,2
1554949,-0.0,0.97,0.12,0.89,-0.95,0.02,10.66,-25.1,18.32,2
1554960,-0.0,0.97,0.12,0.63,-0.94,0.03,10.7,-25.04,18.51,2
1554972,-0.0,0.97,0.11,0.55,-0.96,0.05,10.7,-25.04,18.51,2
1554984,-0.0,0.97,0.11,0.68,-0.95,0.08,10.7,-25.04,18.51,2
1554996,-0.0,0.97,0.11,0.97,-1.08,0.11,10.7,-25.04,18.51,2
1555009,-0.0,0.97,0.12,0.97,-1.1,0.11,10.61,-25.16,18.63,2
1555019,-0.0,0.97,0.12,0.81,-1.1,0.13,10.61,-25.16,18.63,2
1555029,-0.0,0.97,0.12,0.47,-1.1,0.1,10.61,-25.16,18.63,2
1555041,-0.0,0.97,0.12,-0.44,-1.03,0.06,10.61,-25.16,18.63,2
1555052,-0.0,0.97,0.12,-0.77,-0.98,0.05,10.61,-25.16,18.63,2
1555063,-0.0,0.97,0.12,-1.25,-0.9,0.04,10.65,-25.16,18.63,2
1555075,-0.0,0.97,0.11,-2.41,-0.9,-0.03,10.65,-25.16,18.63,2
1555087,-0.0,0.97,0.11,-2.38,-0.89,-0.05,10.65,-25.16,18.63,2
1555101,-0.0,0.97,0.11,-1.73,-0.24,0.11,10.65,-25.16,18.63,2
1555112,-0.0,0.97,0.11,-1.6,0.01,0.14,10.69,-25.14,18.82,2
1555124,-0.0,0.97,0.1,-1.61,-0.19,0.1,10.69,-25.14,18.82,2
1555136,-0.0,0.97,0.1,-0.91,-0.43,0.11,10.69,-25.14,18.82,2
1555147,-0.0,0.97,0.1,-0.48,-0.42,0.13,10.69,-25.14,18.82,2
1555160,-0.0,0.97,0.11,0.71,1.48,0.36,10.69,-25.09,19.02,2
1555171,-0.0,0.97,0.1,0.93,1.43,0.36,10.69,-25.09,19.02,2
1555181,-0.0,0.97,0.1,1.09,0.95,0.25,10.69,-25.09,19.02,2
1555191,-0.0,0.97,0.1,1.24,0.46,0.24,10.69,-25.09,19.02,2
1555201,-0.0,0.97,0.1,1.4,0.11,0.24,10.69,-25.09,19.02,2
1555214,-0.0,0.97,0.1,1.64,-0.37,0.21,10.68,-25.06,19.09,2
1555224,-0.0,0.97,0.11,1.71,-0.54,0.19,10.68,-25.06,19.09,2
1555235,-0.0,0.97,0.11,1.67,-0.65,0.15,10.68,-25.06,19.09,2
1555247,-0.0,0.97,0.11,1.24,-0.89,0.14,10.68,-25.06,19.09,2
1555258,-0.0,0.97,0.11,0.92,-0.89,0.11,10.69,-24.9,19.03,2
1555271,-0.0,0.97,0.11,0.41,-0.93,0.07,10.69,-24.9,19.03,2
1555282,-0.0,0.97,0.1,0.37,-0.92,0.05,10.69,-24.9,19.03,2
1555293,-0.0,0.97,0.1,0.55,-0.97,0.07,10.69,-24.9,19.03,2
1555308,-0.0,0.97,0.1,1.22,-1.11,0.07,10.66,-24.91,19.06,2
1555319,-0.0,0.97,0.1,1.52,-1.13,0.1,10.66,-24.91,19.06,2
1555333,-0.0,0.97,0.1,1.63,-1.08,0.09,10.66,-24.91,19.06,2
1555344,-0.0,0.97,0.1,1.59,-1.07,0.07,10.66,-24.91,19.06,2
1555355,-0.0,0.97,0.1,1.61,-1.12,0.07,10.77,-24.97,19.22,2
1555367,-0.0,0.97,0.1,1.76,-1.12,0.06,10.77,-24.97,19.22,2
1555379,-0.0,0.97,0.1,1.88,-1.13,0.02,10.77,-24.97,19.22,2
1555391,-0.0,0.97,0.1,2.33,-1.18,0.11,10.77,-24.97,19.22,2
1555403,-0.0,0.97,0.1,2.48,-1.22,0.11,10.77,-24.97,19.22,2
1555414,-0.0,0.97,0.1,2.58,-1.23,0.13,10.85,-25.02,19.18,2
1555427,-0.0,0.97,0.11,2.61,-1.21,0.08,10.85,-25.02,19.18,2
1555439,-0.0,0.97,0.11,2.55,-1.16,0.1,10.85,-25.02,19.18,2
1555451,-0.0,0.97,0.11,2.12,-1.15,0.11,10.85,-25.02,19.18,2
1555464,-0.0,0.97,0.11,1.87,-1.14,0.13,10.68,-24.99,19.19,2
1555475,-0.0,0.97,0.11,1.57,-1.1,0.1,10.68,-24.99,19.19,2
1555487,-0.0,0.97,0.1,1.34,-1.13,0.04,10.68,-24.99,19.19,2
1555499,-0.0,0.97,0.11,1.35,-1.15,0.07,10.68,-24.99,19.19,2
1555510,-0.0,0.97,0.11,1.38,-1.12,0.1,10.7,-24.93,19.12,2
1555522,-0.0,0.97,0.11,1.23,-1.08,0.07,10.7,-24.93,19.12,2
1555533,-0.0,0.97,0.11,1.08,-1.1,0.05,10.7,-24.93,19.12,2
1555546,-0.0,0.97,0.11,0.81,-1.07,0.04,10.7,-24.93,19.12,2
1555558,-0.0,0.97,0.11,0.67,-1.02,0.05,10.71,-24.96,19.21,2
1555568,-0.0,0.97,0.1,0.56,-1.01,0.06,10.71,-24.96,19.21,2
1555580,-0.0,0.97,0.1,0.62,-0.93,0.05,10.71,-24.96,19.21,2
1555591,-0.0,0.97,0.1,0.83,-0.97,0.07,10.71,-24.96,19.21,2
1555603,-0.0,0.97,0.1,1.03,-1.04,0.09,10.71,-24.96,19.21,2
1555615,-0.0,0.97,0.1,1.13,-0.99,0.11,10.72,-24.9,19.33,2
1555626,-0.01,0.97,0.12,1.05,-0.64,0.14,10.72,-24.9,19.33,2
1555637,-0.01,0.97,0.12,0.75,0.11,0.21,10.72,-24.9,19.33,2
1555651,-0.02,0.97,0.12,-0.07,1.07,0.4,10.72,-24.9,19.33,2
1555662,0.01,0.97,0.12,-0.24,1.49,0.52,10.7,-25.0,19.17,2
1555673,0.02,0.97,0.1,-1.22,1.47,0.47,10.7,-25.0,19.17,2
1555685,0.01,0.97,0.09,-1.55,0.55,0.27,10.7,-25.0,19.17,2
1555697,0.01,0.97,0.09,-1.28,0.19,0.23,10.7,-25.0,19.17,2
1555708,0.01,0.97,0.09,-1.0,-0.16,0.19,10.77,-24.93,19.32,2
1555720,0.0,0.97,0.09,-0.6,-0.53,0.12,10.77,-24.93,19.32,2
1555731,0.0,0.97,0.09,-0.33,-0.63,0.08,10.77,-24.93,19.32,2
1555745,0.0,0.97,0.09,0.53,-0.85,0.11,10.77,-24.93,19.32,2
1555756,0.0,0.97,0.09,1.02,-0.89,0.11,10.89,-24.86,19.12,2
1555767,0.0,0.97,0.09,1.4,-0.96,0.13,10.89,-24.86,19.12,2
1555779,0.0,0.97,0.1,1.62,-1.0,0.12,10.89,-24.86,19.12,2
1555791,-0.0,0.97,0.1,1.43,-1.04,0.11,10.89,-24.86,19.12,2
1555804,-0.0,0.97,0.1,0.65,-1.06,0.11,10.86,-24.85,18.93,2
1555816,-0.0,0.97,0.1,0.2,-1.08,0.09,10.86,-24.85,18.93,2
1555828,-0.0,0.97,0.1,-0.26,-1.06,0.06,10.86,-24.85,18.93,2
1555840,-0.0,0.97,0.1,-0.81,-0.99,0.06,10.86,-24.85,18.93,2
1555852,-0.0,0.97,0.1,-0.87,-0.98,0.06,10.86,-24.85,18.93,2
1555864,-0.0,0.97,0.09,-0.84,-1.04,0.02,10.87,-24.73,19.17,2
1555875,-0.0,0.97,0.09,-0.76,-1.04,0.0,10.87,-24.73,19.17,2
1555886,-0.0,0.97,0.09,-0.65,-1.05,0.03,10.87,-24.73,19.17,2
1555900,-0.0,0.97,0.09,-0.27,-1.07,0.05,10.87,-24.73,19.17,2
1555911,-0.0,0.97,0.09,0.09,-1.09,0.07,10.91,-24.84,19.23,2
1555922,-0.0,0.97,0.09,0.61,-1.05,0.08,10.91,-24.84,19.23,2
1555934,-0.0,0.97,0.08,1.76,-1.18,0.08,10.91,-24.84,19.23,2
1555946,-0.0,0.97,0.09,2.4,-1.26,0.1,10.91,-24.84,19.23,2
1555957,-0.0,0.97,0.09,2.93,-1.29,0.13,10.88,-24.8,18.91,2
1555969,-0.0,0.97,0.1,3.43,-1.41,0.17,10.88,-24.8,18.91,2
1555980,-0.0,0.97,0.1,3.34,-1.36,0.15,10.88,-24.8,18.91,2
1555994,-0.0,0.97,0.1,2.53,-1.31,0.15,10.88,-24.8,18.91,2
1556005,-0.0,0.97,0.1,2.0,-1.25,0.13,10.96,-24.77,19.01,2
1556017,-0.0,0.97,0.1,1.54,-1.2,0.12,10.96,-24.77,19.01,2
1556029,-0.0,0.97,0.1,1.15,-1.12,0.08,10.96,-24.77,19.01,2
1556039,-0.0,0.97,0.1,1.09,-1.11,0.09,10.96,-24.77,19.01,2
1556050,-0.0,0.97,0.1,1.05,-1.12,0.1,10.96,-24.77,19.01,2
1556063,-0.0,0.97,0.09,0.96,-1.14,0.07,11.03,-24.76,18.96,2
1556075,-0.0,0.97,0.09,1.11,-1.17,0.04,11.03,-24.76,18.96,2
1556089,-0.0,0.97,0.09,2.23,-1.14,0.12,11.03,-24.76,18.96,2
1556100,-0.0,0.97,0.09,2.78,-1.13,0.12,11.03,-24.76,18.96,2
1556111,-0.0,0.97,0.08,3.38,-1.12,0.12,11.02,-24.7,19.04,2
1556123,-0.0,0.97,0.09,4.74,-1.14,0.17,11.02,-24.7,19.04,2
1556135,-0.0,0.97,0.1,4.99,-1.11,0.19,11.02,-24.7,19.04,2
1556148,-0.0,0.97,0.1,4.88,-0.98,0.2,11.02,-24.7,19.04,2
1556159,-0.0,0.97,0.1,4.71,-0.98,0.21,10.99,-24.79,18.93,2
1556171,-0.0,0.97,0.1,4.56,-1.02,0.22,10.99,-24.79,18.93,2
1556183,-0.0,0.97,0.1,4.65,-1.06,0.21,10.99,-24.79,18.93,2
1556194,-0.0,0.97,0.1,4.6,-1.06,0.23,10.99,-24.79,18.93,2
1556205,-0.0,0.97,0.11,4.34,-1.04,0.25,11.01,-24.79,18.94,2
1556217,-0.0,0.97,0.1,3.6,-1.09,0.21,11.01,-24.79,18.94,2
1556229,-0.0,0.97,0.1,3.37,-1.05,0.16,11.01,-24.79,18.94,2
1556242,-0.0,0.97,0.1,3.04,-1.08,0.14,11.01,-24.79,18.94,2
1556253,-0.0,0.97,0.11,2.9,-1.07,0.16,11.01,-24.79,18.94,2
1556264,-0.0,0.97,0.11,2.66,-1.03,0.16,10.9,-24.88,18.87,2
1556277,-0.0,0.97,0.11,1.56,-1.0,0.11,10.9,-24.88,18.87,2
1556289,-0.0,0.97,0.11,0.92,-1.02,0.13,10.9,-24.88,18.87,2
1556302,-0.0,0.97,0.11,-0.07,-1.03,0.1,10.9,-24.88,18.87,2
1556314,-0.0,0.97,0.1,-0.38,-1.09,0.09,10.9,-24.86,18.81,2
1556325,-0.0,0.97,0.1,-0.5,-1.16,0.07,10.9,-24.86,18.81,2
1556337,-0.0,0.97,0.1,-0.46,-1.23,0.1,10.9,-24.86,18.81,2
1556349,-0.0,0.97,0.11,-0.64,-1.24,0.08,10.9,-24.86,18.81,2
1556360,-0.0,0.97,0.11,-0.97,-1.21,0.06,10.9,-24.96,18.66,2
1556372,-0.0,0.97,0.1,-1.72,-1.08,0.04,10.9,-24.96,18.66,2
1556384,-0.0,0.97,0.1,-2.11,-1.06,0.0,10.9,-24.96,18.66,2
1556398,-0.0,0.97,0.1,-2.99,-1.08,0.0,10.9,-24.96,18.66,2
1556409,-0.0,0.97,0.1,-3.48,-1.06,0.0,10.83,-24.91,18.57,2
1556420,-0.0,0.97,0.11,-3.89,-1.03,-0.02,10.83,-24.91,18.57,2
1556433,-0.0,0.97,0.1,-5.45,-0.98,-0.1,10.83,-24.91,18.57,2
1556444,-0.0,0.97,0.1,-6.2,-1.03,-0.1,10.83,-24.91,18.57,2
1556458,-0.0,0.97,0.09,-7.67,-1.07,-0.14,10.87,-24.84,18.7,2
1556469,-0.0,0.97,0.09,-8.01,-1.13,-0.13,10.87,-24.84,18.7,2
1556480,-0.0,0.97,0.08,-8.01,-1.09,-0.16,10.87,-24.84,18.7,2
1556492,-0.0,0.97,0.07,-7.53,-1.15,-0.12,10.87,-24.84,18.7,2
1556504,-0.0,0.97,0.07,-6.91,-1.15,-0.09,10.84,-24.88,18.74,2
1556515,-0.0,0.97,0.07,-6.23,-1.15,-0.08,10.84,-24.88,18.74,2
1556527,-0.0,0.97,0.07,-4.96,-1.2,-0.08,10.84,-24.88,18.74,2
1556539,-0.0,0.98,0.06,-4.31,-1.19,-0.05,10.84,-24.88,18.74,2
1556553,-0.0,0.98,0.06,-2.75,-1.18,0.01,10.68,-24.77,18.81,2
1556565,-0.0,0.98,0.06,-1.78,-1.19,0.02,10.68,-24.77,18.81,2
1556579,-0.0,0.97,0.07,-0.22,-1.2,0.04,10.68,-24.77,18.81,2
1556589,-0.0,0.97,0.07,0.19,-1.15,0.07,10.68,-24.77,18.81,2
1556599,-0.0,0.97,0.07,0.4,-1.11,0.04,10.68,-24.77,18.81,2
1556611,-0.0,0.97,0.07,0.41,-1.12,0.07,10.68,-24.74,18.93,2
1556622,-0.0,0.97,0.07,0.35,-1.14,0.08,10.68,-24.74,18.93,2
1556633,-0.0,0.97,0.07,0.29,-1.16,0.08,10.68,-24.74,18.93,2
1556647,-0.0,0.97,0.07,-0.1,-1.19,0.07,10.68,-24.74,18.93,2
1556658,-0.0,0.97,0.07,-0.36,-1.25,0.07,10.71,-24.79,19.11,2
1556671,-0.0,0.97,0.07,-0.98,-1.21,0.04,10.71,-24.79,19.11,2
1556682,-0.0,0.97,0.07,-1.22,-1.15,0.04,10.71,-24.79,19.11,2
1556694,-0.0,0.97,0.07,-1.34,-1.12,0.05,10.71,-24.79,19.11,2
1556707,-0.0,0.97,0.07,-1.43,-1.09,0.03,10.72,-24.79,19.41,2
1556718,-0.0,0.97,0.07,-1.72,-1.12,0.04,10.72,-24.79,19.41,2
1556731,-0.0,0.97,0.07,-2.13,-1.19,-0.01,10.72,-24.79,19.41,2
1556742,-0.0,0.97,0.07,-2.34,-1.16,-0.02,10.72,-24.79,19.41,2
1556753,-0.0,0.97,0.07,-2.69,-1.13,0.01,10.56,-24.78,19.52,2
1556767,-0.0,0.97,0.06,-2.93,-1.16,0.02,10.56,-24.78,19.52,2
1556779,-0.0,0.98,0.05,-2.73,-1.13,0.03,10.56,-24.78,19.52,2
1556792,-0.0,0.98,0.05,-1.82,-1.2,0.07,10.56,-24.78,19.52,2
1556804,-0.0,0.98,0.06,-1.4,-1.2,0.07,10.59,-24.56,19.5,2
1556814,-0.0,0.97,0.06,-1.16,-1.17,0.06,10.59,-24.56,19.5,2
1556827,-0.0,0.97,0.06,-0.82,-1.11,0.02,10.59,-24.56,19.5,2
1556838,-0.0,0.97,0.06,-0.65,-1.1,0.07,10.59,-24.56,19.5,2
1556849,-0.0,0.97,0.06,-0.48,-1.06,0.1,10.59,-24.56,19.5,2
1556862,-0.0,0.97,0.06,-0.41,-1.11,0.09,10.63,-24.35,19.63,2
1556873,-0.0,0.97,0.06,-0.62,-1.12,0.06,10.63,-24.35,19.63,2
1556885,-0.0,0.97,0.06,-1.3,-1.09,0.03,10.63,-24.35,19.63,2
1556896,-0.0,0.97,0.06,-1.78,-1.07,0.02,10.63,-24.35,19.63,2
1556907,-0.0,0.97,0.06,-2.22,-1.09,-0.01,10.69,-24.33,19.46,2
1556918,-0.0,0.97,0.06,-2.69,-1.13,-0.02,10.69,-24.33,19.46,2
1556930,-0.0,0.97,0.06,-3.5,-1.17,-0.05,10.69,-24.33,19.46,2
1556941,-0.0,0.97,0.06,-3.88,-1.12,-0.05,10.69,-24.33,19.46,2
1556953,-0.0,0.97,0.06,-4.31,-1.12,-0.04,10.69,-24.3,19.57,2
1556965,-0.0,0.97,0.06,-5.28,-1.08,-0.06,10.69,-24.3,19.57,2
1556976,-0.0,0.97,0.05,-5.92,-0.9,-0.09,10.69,-24.3,19.57,2
1556987,-0.0,0.98,0.05,-6.33,-0.4,-0.02,10.69,-24.3,19.57,2
1556999,-0.0,0.98,0.04,-6.17,1.43,0.23,10.69,-24.3,19.57,2
1557010,-0.0,0.98,0.03,-6.06,1.72,0.26,10.73,-24.21,19.8,2
1557021,-0.0,0.98,0.03,-5.8,1.53,0.2,10.73,-24.21,19.8,2
1557033,-0.0,0.98,0.03,-5.65,0.76,0.12,10.73,-24.21,19.8,2
1557045,-0.0,0.98,0.03,-5.36,0.39,0.09,10.73,-24.21,19.8,2
1557056,-0.0,0.98,0.02,-4.93,0.06,0.07,10.72,-24.07,19.71,2
1557068,-0.0,0.98,0.02,-3.83,-0.37,0.04,10.72,-24.07,19.71,2
1557079,-0.0,0.98,0.02,-3.12,-0.49,0.01,10.72,-24.07,19.71,2
1557093,-0.0,0.98,0.02,-1.58,-0.8,0.05,10.72,-24.07,19.71,2
1557104,-0.0,0.98,0.02,-0.82,-0.88,0.07,10.81,-24.0,20.02,2
1557116,-0.0,0.98,0.02,-0.13,-0.9,0.07,10.81,-24.0,20.02,2
1557128,-0.0,0.98,0.02,0.92,-0.94,0.08,10.81,-24.0,20.02,2
1557139,-0.0,0.98,0.02,1.23,-0.99,0.1,10.81,-24.0,20.02,2
1557153,-0.0,0.98,0.03,1.4,-1.08,0.15,10.73,-23.85,20.41,2
1557165,-0.0,0.98,0.03,1.29,-1.07,0.14,10.73,-23.85,20.41,2
1557177,-0.0,0.98,0.03,0.7,-1.01,0.16,10.73,-23.85,20.41,2
1557188,-0.0,0.97,0.03,0.3,-1.02,0.17,10.73,-23.85,20.41,2
1557200,-0.0,0.98,0.03,-0.09,-1.02,0.13,10.73,-23.85,20.41,2
1557212,-0.0,0.98,0.03,-0.5,-1.02,0.04,10.73,-23.76,20.73,2
1557223,-0.0,0.98,0.02,-0.59,-1.01,0.02,10.73,-23.76,20.73,2
1557234,-0.0,0.98,0.02,-0.61,-1.06,0.04,10.73,-23.76,20.73,2
1557248,-0.0,0.98,0.02,-0.5,-1.11,0.05,10.73,-23.76,20.73,2
1557259,-0.0,0.98,0.02,-0.4,-1.16,0.04,10.72,-23.76,20.74,2
1557272,-0.0,0.98,0.02,-0.42,-1.1,-0.05,10.72,-23.76,20.74,2
1557283,-0.0,0.98,0.03,-0.63,-1.09,-0.04,10.72,-23.76,20.74,2
1557294,-0.0,0.98,0.03,-0.92,-1.1,-0.05,10.72,-23.76,20.74,2
1557308,-0.0,0.97,0.03,-1.73,-1.12,-0.0,10.66,-23.72,20.54,2
1557319,-0.0,0.97,0.02,-2.08,-1.17,-0.0,10.66,-23.72,20.54,2
1557330,-0.0,0.97,0.02,-2.4,-1.11,0.01,10.66,-23.72,20.54,2
1557341,-0.0,0.98,0.02,-2.76,-1.02,0.07,10.66,-23.72,20.54,2
1557353,-0.0,0.98,0.02,-2.77,-0.88,0.09,10.69,-23.67,20.81,2
1557364,-0.0,0.98,0.02,-2.67,-0.64,0.1,10.69,-23.67,20.81,2
1557377,-0.0,0.98,0.01,-2.65,-0.56,0.06,10.69,-23.67,20.81,2
1557388,-0.0,0.98,0.01,-2.61,-0.68,0.09,10.69,-23.67,20.81,2
1557403,-0.0,0.98,0.01,-2.69,-0.86,0.08,10.71,-23.66,20.98,2
1557415,-0.0,0.98,0.01,-2.72,-0.86,0.08,10.71,-23.66,20.98,2
1557428,-0.0,0.98,0.02,-3.06,-0.38,0.06,10.71,-23.66,20.98,2
1557440,-0.01,0.98,0.01,-3.39,-0.05,0.05,10.71,-23.66,20.98,2
1557455,-0.01,0.98,0.01,-4.12,0.67,-0.04,10.62,-23.6,21.25,2
1557465,-0.0,0.98,0.01,-4.53,1.06,-0.09,10.62,-23.6,21.25,2
1557476,0.01,0.98,0.0,-4.81,1.12,-0.15,10.62,-23.6,21.25,2
1557488,0.0,0.98,0.0,-4.41,0.34,-0.08,10.62,-23.6,21.25,2
1557500,0.0,0.98,0.0,-4.16,0.05,-0.04,10.62,-23.6,21.25,2
1557511,0.0,0.98,0.0,-4.08,-0.19,-0.0,10.6,-23.5,21.54,2
1557523,0.0,0.98,0.0,-4.29,-0.43,-0.07,10.6,-23.5,21.54,2
1557534,0.0,0.98,-0.0,-4.39,-0.55,-0.04,10.6,-23.5,21.54,2
1557545,-0.0,0.98,-0.0,-4.41,-0.62,-0.03,10.6,-23.5,21.54,2
1557558,-0.01,0.98,-0.01,-4.29,-0.66,-0.0,10.64,-23.3,21.71,2
1557570,-0.01,0.98,-0.01,-4.22,-0.26,-0.02,10.64,-23.3,21.71,2
1557581,-0.0,0.98,-0.01,-4.22,0.9,-0.07,10.64,-23.3,21.71,2
1557592,-0.0,0.98,-0.01,-3.93,1.16,-0.01,10.64,-23.3,21.71,2
1557603,-0.0,0.98,-0.02,-3.66,1.67,0.02,10.6,-23.21,21.7,2
1557617,-0.01,0.98,-0.02,-3.1,2.69,-0.0,10.6,-23.21,21.7,2
1557629,-0.01,0.98,-0.01,-2.83,3.15,-0.02,10.6,-23.21,21.7,2
1557643,-0.0,0.98,-0.01,-2.65,4.2,0.05,10.6,-23.21,21.7,2
1557654,0.01,0.98,-0.02,-2.63,4.31,0.05,10.6,-23.14,21.96,2
1557665,0.01,0.98,-0.03,-2.1,3.48,0.07,10.6,-23.14,21.96,2
1557677,0.01,0.98,-0.02,-0.5,1.66,0.04,10.6,-23.14,21.96,2
1557689,0.0,0.98,-0.02,0.15,1.03,0.08,10.6,-23.14,21.96,2
1557703,0.0,0.98,-0.02,0.79,0.14,0.09,10.37,-23.09,21.88,2
1557714,0.0,0.98,-0.02,0.81,-0.13,0.1,10.37,-23.09,21.88,2
1557726,0.0,0.98,-0.02,0.71,-0.26,0.06,10.37,-23.09,21.88,2
1557737,0.0,0.98,-0.02,0.49,-0.49,0.11,10.37,-23.09,21.88,2
1557749,-0.0,0.98,-0.02,0.34,-0.57,0.11,10.37,-23.09,21.88,2
1557760,-0.0,0.98,-0.02,0.36,-0.49,0.12,10.44,-23.08,21.92,2
1557772,-0.0,0.98,-0.02,0.27,-0.26,0.1,10.44,-23.08,21.92,2
1557784,0.0,0.98,-0.02,0.11,-0.35,0.11,10.44,-23.08,21.92,2
1557794,0.0,0.98,-0.02,0.05,-0.49,0.11,10.44,-23.08,21.92,2
1557807,-0.0,0.98,-0.03,0.6,-0.85,0.15,10.44,-23.0,22.09,2
1557818,-0.0,0.98,-0.03,1.16,-0.97,0.16,10.44,-23.0,22.09,2
1557832,-0.0,0.98,-0.02,2.0,-1.07,0.11,10.44,-23.0,22.09,2
1557843,-0.0,0.98,-0.02,2.28,-1.07,0.11,10.44,-23.0,22.09,2
1557855,-0.0,0.98,-0.02,2.35,-1.05,0.13,10.29,-22.9,22.06,2
1557867,-0.0,0.98,-0.01,1.58,-1.01,0.06,10.29,-22.9,22.06,2
1557878,-0.0,0.98,-0.01,1.07,-0.97,0.02,10.29,-22.9,22.06,2
1557892,-0.0,0.98,-0.01,-0.14,-0.99,0.02,10.29,-22.9,22.06,2
1557903,-0.0,0.98,-0.01,-0.57,-1.0,0.02,10.27,-22.74,22.35,2
1557916,-0.0,0.98,-0.02,-1.25,-0.95,0.03,10.27,-22.74,22.35,2
1557927,-0.01,0.98,-0.01,-1.48,-0.25,0.02,10.27,-22.74,22.35,2
1557939,-0.01,0.98,-0.02,-1.84,0.54,0.07,10.27,-22.74,22.35,2
1557951,-0.01,0.98,-0.02,-2.88,1.04,0.16,10.18,-22.7,22.49,2
1557963,-0.0,0.98,-0.02,-3.31,0.81,0.15,10.18,-22.7,22.49,2
1557974,-0.0,0.98,-0.02,-3.56,0.56,0.08,10.18,-22.7,22.49,2
1557986,-0.0,0.98,-0.03,-3.56,0.24,0.06,10.18,-22.7,22.49,2
1557998,-0.01,0.98,-0.03,-3.41,0.41,0.08,10.18,-22.7,22.49,2
1558009,-0.0,0.98,-0.03,-3.16,1.03,0.03,10.17,-22.62,22.75,2
1558021,-0.0,0.98,-0.04,-2.9,0.98,0.01,10.17,-22.62,22.75,2
1558033,-0.0,0.98,-0.04,-2.63,0.49,0.01,10.17,-22.62,22.75,2
1558046,0.0,0.98,-0.03,-2.13,-0.23,0.03,10.17,-22.62,22.75,2
1558058,-0.0,0.98,-0.03,-2.15,-0.53,0.06,10.18,-22.52,22.71,2
1558070,-0.0,0.98,-0.03,-3.07,-0.81,-0.0,10.18,-22.52,22.71,2
1558082,-0.0,0.97,-0.02,-3.98,-0.9,-0.0,10.18,-22.52,22.71,2
1558094,-0.0,0.98,-0.03,-4.96,-0.98,-0.04,10.18,-22.52,22.71,2
1558107,0.0,0.98,-0.03,-6.5,-1.77,-0.07,10.2,-22.37,22.89,2
1558119,-0.0,0.97,-0.03,-7.19,-2.27,-0.08,10.2,-22.37,22.89,2
1558133,-0.0,0.97,-0.04,-8.76,-2.09,-0.15,10.2,-22.37,22.89,2
1558145,-0.0,0.98,-0.04,-9.34,-1.88,-0.14,10.2,-22.37,22.89,2
1558158,-0.0,0.98,-0.06,-9.9,-1.58,-0.13,10.18,-22.36,23.16,2
1558170,-0.0,0.98,-0.06,-9.58,-1.39,-0.13,10.18,-22.36,23.16,2
1558182,-0.0,0.98,-0.07,-8.05,-1.15,-0.1,10.18,-22.36,23.16,2
1558193,-0.0,0.98,-0.07,-6.96,-1.11,-0.12,10.18,-22.36,23.16,2
1558204,-0.0,0.98,-0.08,-5.72,-1.11,-0.11,10.08,-22.21,23.35,2
1558218,-0.0,0.98,-0.08,-2.85,-1.14,-0.01,10.08,-22.21,23.35,2
1558230,-0.0,0.98,-0.08,-1.3,-1.2,0.04,10.08,-22.21,23.35,2
1558242,-0.0,0.98,-0.08,1.31,-1.26,0.13,10.08,-22.21,23.35,2
1558254,-0.0,0.98,-0.07,2.26,-1.26,0.17,10.1,-22.19,23.57,2
1558265,-0.0,0.98,-0.07,2.99,-1.27,0.17,10.1,-22.19,23.57,2
1558275,-0.0,0.98,-0.07,3.53,-1.27,0.16,10.1,-22.19,23.57,2
1558287,-0.0,0.98,-0.06,4.06,-1.22,0.18,10.1,-22.19,23.57,2
1558299,-0.0,0.98,-0.06,3.98,-1.21,0.15,10.1,-22.19,23.57,2
1558310,-0.0,0.98,-0.05,3.64,-1.17,0.15,10.06,-22.22,23.59,2
1558322,-0.0,0.98,-0.05,2.75,-1.07,0.13,10.06,-22.22,23.59,2
1558332,-0.0,0.98,-0.05,2.34,-1.09,0.13,10.06,-22.22,23.59,2
1558342,-0.0,0.98,-0.05,1.94,-1.1,0.13,10.06,-22.22,23.59,2
1558354,-0.0,0.98,-0.05,1.14,-1.1,0.14,10.12,-22.06,23.92,2
1558365,-0.0,0.98,-0.05,0.78,-1.09,0.15,10.12,-22.06,23.92,2
1558377,-0.0,0.97,-0.05,0.37,-1.04,0.13,10.12,-22.06,23.92,2
1558387,-0.0,0.97,-0.06,-0.04,-1.0,0.12,10.12,-22.06,23.92,2
1558399,-0.0,0.98,-0.06,-0.76,-1.06,0.12,10.12,-22.06,23.92,2
1558410,-0.0,0.98,-0.06,-0.99,-1.07,0.08,10.13,-21.99,23.88,2
1558423,-0.0,0.98,-0.06,-1.21,-1.03,0.02,10.13,-21.99,23.88,2
1558434,-0.0,0.98,-0.06,-1.25,-1.09,0.03,10.13,-21.99,23.88,2
1558446,-0.0,0.98,-0.06,-1.34,-1.1,0.05,10.13,-21.99,23.88,2
1558459,-0.0,0.97,-0.06,-1.62,-1.13,0.05,10.05,-21.88,23.84,2
1558471,-0.0,0.97,-0.06,-1.94,-1.1,0.06,10.05,-21.88,23.84,2
1558484,-0.0,0.98,-0.06,-2.87,-1.05,0.04,10.05,-21.88,23.84,2
1558495,-0.0,0.98,-0.06,-3.38,-1.05,0.02,10.05,-21.88,23.84,2
1558506,-0.0,0.98,-0.07,-3.86,-1.01,-0.03,10.17,-21.76,23.92,2
1558517,-0.0,0.98,-0.07,-4.4,-0.92,-0.06,10.17,-21.76,23.92,2
1558528,-0.0,0.98,-0.07,-4.38,-0.93,-0.07,10.17,-21.76,23.92,2
1558539,-0.0,0.98,-0.08,-4.18,-0.98,-0.06,10.17,-21.76,23.92,2
1558550,-0.0,0.98,-0.08,-3.92,-0.99,-0.02,10.13,-21.67,24.18,2
1558562,-0.0,0.98,-0.08,-3.13,-1.06,0.02,10.13,-21.67,24.18,2
1558574,-0.0,0.98,-0.08,-2.8,-1.03,0.02,10.13,-21.67,24.18,2
1558588,-0.0,0.98,-0.09,-1.85,-1.08,0.05,10.13,-21.67,24.18,2
1558601,-0.0,0.98,-0.09,-1.21,-1.11,0.06,10.19,-21.61,24.38,2
1558611,-0.0,0.98,-0.09,0.06,-1.13,0.08,10.19,-21.61,24.38,2
1558622,-0.0,0.98,-0.08,0.38,-1.13,0.06,10.19,-21.61,24.38,2
1558633,-0.0,0.98,-0.08,0.5,-1.11,0.07,10.19,-21.61,24.38,2
1558644,-0.0,0.98,-0.08,0.52,-1.15,0.04,10.19,-21.61,24.38,2
1558657,-0.0,0.98,-0.08,0.36,-1.12,0.06,10.16,-21.61,24.32,2
1558669,-0.0,0.98,-0.08,0.31,-1.09,0.06,10.16,-21.61,24.32,2
1558682,-0.0,0.98,-0.08,0.19,-1.12,0.0,10.16,-21.61,24.32,2
1558694,-0.0,0.97,-0.08,-0.04,-1.1,0.04,10.16,-21.61,24.32,2
1558706,-0.0,0.97,-0.07,-0.86,-1.08,0.06,10.23,-21.54,24.52,2
1558717,-0.0,0.97,-0.07,-1.45,-1.03,0.07,10.23,-21.54,24.52,2
1558728,-0.0,0.97,-0.08,-2.07,-1.02,0.06,10.23,-21.54,24.52,2
1558740,-0.0,0.98,-0.08,-3.08,-1.06,-0.02,10.23,-21.54,24.52,2
1558753,-0.0,0.98,-0.09,-3.32,-1.09,-0.01,10.34,-21.61,24.52,2
1558765,-0.0,0.98,-0.09,-3.41,-1.12,0.0,10.34,-21.61,24.52,2
1558777,-0.0,0.98,-0.09,-3.1,-1.04,-0.02,10.34,-21.61,24.52,2
1558789,-0.0,0.98,-0.1,-2.77,-1.08,-0.02,10.34,-21.61,24.52,2
1558800,-0.0,0.98,-0.1,-2.36,-1.08,-0.01,10.37,-21.5,24.34,2
1558811,-0.0,0.98,-0.1,-1.83,-1.13,-0.01,10.37,-21.5,24.34,2
1558823,-0.0,0.98,-0.1,-0.95,-1.11,-0.02,10.37,-21.5,24.34,2
1558837,-0.0,0.98,-0.1,0.7,-1.09,0.02,10.37,-21.5,24.34,2
1558849,-0.0,0.98,-0.09,1.25,-1.15,0.06,10.33,-21.43,24.33,2
1558860,-0.0,0.98,-0.09,1.54,-1.17,0.09,10.33,-21.43,24.33,2
1558871,-0.0,0.98,-0.09,1.46,-1.13,0.05,10.33,-21.43,24.33,2
1558883,-0.0,0.98,-0.09,1.42,-1.18,0.06,10.33,-21.43,24.33,2
1558897,-0.0,0.98,-0.09,1.5,-1.21,0.1,10.33,-21.43,24.33,2
1558907,-0.0,0.98,-0.09,1.6,-1.19,0.1,10.21,-21.32,24.25,2
1558919,-0.0,0.98,-0.09,1.64,-1.22,0.09,10.21,-21.32,24.25,2
1558931,-0.0,0.97,-0.09,1.62,-1.28,0.1,10.21,-21.32,24.25,2
1558943,-0.0,0.97,-0.09,1.56,-1.24,0.09,10.21,-21.32,24.25,2
1558954,-0.0,0.97,-0.09,1.46,-1.21,0.11,10.25,-21.32,24.44,2
1558966,-0.0,0.97,-0.09,0.89,-1.25,0.08,10.25,-21.32,24.44,2
1558977,-0.0,0.97,-0.09,0.55,-1.24,0.09,10.25,-21.32,24.44,2
1558991,-0.0,0.98,-0.09,0.09,-1.26,0.04,10.25,-21.32,24.44,2
1559002,-0.0,0.97,-0.09,-0.05,-1.22,0.05,10.18,-21.29,24.45,2
1559014,-0.0,0.97,-0.09,-0.13,-1.21,0.06,10.18,-21.29,24.45,2
1559026,-0.0,0.97,-0.09,-0.28,-1.2,0.06,10.18,-21.29,24.45,2
1559038,-0.0,0.97,-0.09,-0.39,-1.16,0.08,10.18,-21.29,24.45,2
1559048,-0.0,0.98,-0.09,-0.53,-1.15,0.07,10.18,-21.29,24.45,2
1559061,-0.0,0.98,-0.1,-0.75,-1.08,0.07,10.08,-21.19,24.46,2
1559072,-0.0,0.97,-0.1,-0.83,-1.07,0.04,10.08,-21.19,24.46,2
1559084,-0.0,0.97,-0.09,-1.07,-1.08,0.05,10.08,-21.19,24.46,2
1559095,-0.0,0.97,-0.09,-1.22,-1.11,0.07,10.08,-21.19,24.46,2
1559106,-0.0,0.97,-0.1,-1.43,-1.14,0.06,10.16,-21.2,24.66,2
1559120,-0.0,0.98,-0.1,-1.7,-1.08,0.02,10.16,-21.2,24.66,2
1559131,-0.0,0.98,-0.1,-1.7,-1.12,0.04,10.16,-21.2,24.66,2
1559142,-0.0,0.97,-0.1,-1.62,-1.14,0.03,10.16,-21.2,24.66,2
1559155,-0.0,0.97,-0.1,-1.52,-1.15,0.06,10.14,-21.0,24.89,2
1559167,-0.0,0.97,-0.1,-1.68,-1.13,0.09,10.14,-21.0,24.89,2
1559180,-0.0,0.97,-0.1,-2.44,-1.12,0.08,10.14,-21.0,24.89,2
1559191,-0.0,0.97,-0.1,-2.91,-1.07,0.07,10.14,-21.0,24.89,2
1559202,-0.0,0.97,-0.1,-3.36,-1.09,0.08,10.11,-20.82,24.94,2
1559213,-0.0,0.97,-0.1,-3.94,-1.08,0.03,10.11,-20.82,24.94,2
1559225,-0.0,0.97,-0.11,-4.11,-1.03,-0.0,10.11,-20.82,24.94,2
1559236,-0.0,0.97,-0.11,-4.09,-1.05,0.01,10.11,-20.82,24.94,2
1559250,-0.0,0.97,-0.11,-3.67,-1.01,0.03,10.1,-20.68,25.08,2
1559262,-0.0,0.97,-0.12,-3.37,-1.03,0.03,10.1,-20.68,25.08,2
1559273,-0.0,0.97,-0.11,-2.85,-1.06,0.02,10.1,-20.68,25.08,2
1559284,-0.0,0.97,-0.12,-2.71,-1.11,0.01,10.1,-20.68,25.08,2
1559296,-0.0,0.97,-0.12,-2.6,-1.16,0.02,10.1,-20.68,25.08,2
1559309,-0.0,0.97,-0.12,-2.2,-1.06,0.05,10.14,-20.51,25.17,2
1559321,-0.0,0.97,-0.12,-1.95,-1.01,0.04,10.14,-20.51,25.17,2
1559331,-0.0,0.97,-0.12,-1.66,-1.02,0.03,10.14,-20.51,25.17,2
1559343,-0.0,0.97,-0.12,-1.14,-1.01,0.1,10.14,-20.51,25.17,2
1559354,-0.0,0.97,-0.12,-1.02,-1.02,0.11,10.18,-20.38,25.41,2
1559366,-0.0,0.97,-0.12,-0.96,-1.04,0.08,10.18,-20.38,25.41,2
1559378,-0.0,0.97,-0.12,-0.74,-1.03,0.1,10.18,-20.38,25.41,2
1559390,-0.0,0.97,-0.12,-0.59,-1.03,0.11,10.18,-20.38,25.41,2
1559403,-0.0,0.97,-0.12,-0.51,-1.08,0.1,10.12,-20.45,25.45,2
1559415,-0.0,0.97,-0.12,-0.63,-1.09,0.06,10.12,-20.45,25.45,2
1559428,-0.0,0.97,-0.12,-1.22,-1.04,0.07,10.12,-20.45,25.45,2
1559439,-0.0,0.97,-0.12,-1.61,-1.04,0.07,10.12,-20.45,25.45,2
1559450,-0.0,0.97,-0.12,-2.02,-1.08,0.03,10.04,-20.43,25.87,2
1559463,-0.0,0.97,-0.13,-2.66,-1.02,0.02,10.04,-20.43,25.87,2
1559475,-0.0,0.97,-0.13,-2.71,-0.96,0.01,10.04,-20.43,25.87,2
1559489,-0.0,0.97,-0.13,-2.25,-0.99,0.04,10.04,-20.43,25.87,2
1559500,-0.0,0.97,-0.13,-1.93,-1.0,0.09,9.98,-20.34,25.83,2
1559512,-0.0,0.97,-0.13,-1.64,-1.02,0.09,9.98,-20.34,25.83,2
1559524,-0.0,0.97,-0.13,-1.22,-1.01,0.02,9.98,-20.34,25.83,2
1559536,-0.0,0.97,-0.13,-1.05,-1.04,0.03,9.98,-20.34,25.83,2
1559550,-0.0,0.97,-0.14,-0.53,-1.14,0.08,9.87,-20.29,25.95,2
1559562,-0.0,0.97,-0.14,-0.21,-1.17,0.08,9.87,-20.29,25.95,2
1559573,-0.0,0.97,-0.14,0.45,-1.17,0.08,9.87,-20.29,25.95,2
1559584,-0.0,0.97,-0.13,0.75,-1.18,0.08,9.87,-20.29,25.95,2
1559596,-0.0,0.97,-0.13,0.86,-1.26,0.07,9.87,-20.29,25.95,2
1559608,-0.0,0.97,-0.13,0.84,-1.56,0.14,9.88,-20.31,25.88,2
1559619,-0.0,0.97,-0.13,0.71,-1.62,0.15,9.88,-20.31,25.88,2
1559631,-0.0,0.97,-0.13,0.56,-1.5,0.14,9.88,-20.31,25.88,2
1559644,-0.0,0.97,-0.13,0.27,-1.27,0.07,9.88,-20.31,25.88,2
1559655,-0.0,0.97,-0.13,0.05,-1.19,0.06,9.91,-20.34,26.12,2
1559666,-0.0,0.97,-0.13,-0.22,-1.13,0.07,9.91,-20.34,26.12,2
1559677,-0.0,0.97,-0.13,-0.76,-1.07,0.06,9.91,-20.34,26.12,2
1559688,-0.0,0.97,-0.13,-0.99,-1.05,0.09,9.91,-20.34,26.12,2
1559699,-0.0,0.97,-0.14,-1.16,-1.05,0.09,9.86,-20.35,26.14,2
1559712,-0.0,0.97,-0.14,-1.24,-1.1,0.06,9.86,-20.35,26.14,2
1559724,-0.0,0.97,-0.14,-1.21,-1.08,0.06,9.86,-20.35,26.14,2
1559738,-0.0,0.97,-0.14,-0.94,-1.11,0.05,9.86,-20.35,26.14,2
1559749,-0.0,0.97,-0.14,-0.84,-1.17,0.06,9.77,-20.32,26.3,2
1559761,-0.0,0.97,-0.14,-0.82,-1.18,0.05,9.77,-20.32,26.3,2
1559773,-0.0,0.97,-0.14,-0.97,-1.17,0.04,9.77,-20.32,26.3,2
1559785,-0.0,0.97,-0.14,-1.12,-1.16,-0.01,9.77,-20.32,26.3,2
1559799,-0.0,0.97,-0.14,-1.54,-1.14,-0.04,9.74,-20.24,26.29,2
1559811,-0.0,0.97,-0.14,-1.67,-1.14,-0.0,9.74,-20.24,26.29,2
1559822,-0.0,0.97,-0.14,-1.81,-1.07,-0.03,9.74,-20.24,26.29,2
1559834,-0.0,0.97,-0.15,-1.76,-1.05,-0.04,9.74,-20.24,26.29,2
1559846,-0.0,0.97,-0.15,-1.77,-1.06,0.01,9.74,-20.24,26.29,2
1559859,-0.0,0.97,-0.15,-1.87,-1.1,0.05,9.83,-20.18,26.49,2
1559871,-0.0,0.97,-0.15,-1.95,-1.04,0.03,9.83,-20.18,26.49,2
1559884,-0.0,0.97,-0.15,-2.11,-1.08,0.05,9.83,-20.18,26.49,2
1559896,-0.0,0.97,-0.15,-2.17,-1.07,0.06,9.83,-20.18,26.49,2
1559907,-0.0,0.97,-0.15,-2.25,-1.05,0.03,9.95,-20.1,26.72,2
1559919,-0.0,0.97,-0.15,-2.66,-1.01,-0.03,9.95,-20.1,26.72,2
1559931,-0.0,0.97,-0.15,-2.77,-1.03,-0.03,9.95,-20.1,26.72,2
1559945,-0.0,0.97,-0.15,-2.77,-0.99,0.02,9.95,-20.1,26.72,2
1559956,-0.0,0.97,-0.16,-2.76,-1.02,0.01,9.99,-19.97,26.74,2
1559970,-0.0,0.97,-0.16,-2.75,-1.02,-0.02,9.99,-19.97,26.74,2
1559982,-0.0,0.97,-0.16,-2.75,-1.01,0.02,9.99,-19.97,26.74,2
1559995,-0.0,0.97,-0.16,-2.63,-1.06,0.03,9.99,-19.97,26.74,2
1560007,-0.0,0.97,-0.16,-2.56,-1.11,0.01,9.95,-19.89,26.95,2
1560018,-0.0,0.97,-0.16,-2.5,-1.05,0.01,9.95,-19.89,26.95,2
1560031,-0.0,0.97,-0.16,-2.19,-1.04,0.01,9.95,-19.89,26.95,2
1560041,-0.0,0.97,-0.17,-2.05,-1.05,-0.0,9.95,-19.89,26.95,2
1560052,-0.0,0.97,-0.17,-1.85,-1.06,0.01,9.95,-19.74,27.31,2
1560063,-0.0,0.97,-0.17,-1.38,-1.1,-0.02,9.95,-19.74,27.31,2
1560074,-0.0,0.97,-0.17,-1.2,-1.17,-0.0,9.95,-19.74,27.31,2
1560086,-0.0,0.97,-0.17,-1.05,-1.23,0.01,9.95,-19.74,27.31,2
1560098,-0.0,0.97,-0.17,-0.47,-1.27,0.08,9.9,-19.62,27.23,2
1560110,-0.0,0.97,-0.17,-0.12,-1.32,0.12,9.9,-19.62,27.23,2
1560123,-0.0,0.97,-0.17,0.17,-1.41,0.13,9.9,-19.62,27.23,2
1560134,-0.0,0.97,-0.17,0.11,-1.4,0.09,9.9,-19.62,27.23,2
1560146,-0.0,0.97,-0.17,0.0,-1.35,0.08,9.9,-19.62,27.23,2
1560158,-0.0,0.97,-0.17,-0.21,-1.24,0.08,9.98,-19.65,27.17,2
1560169,-0.0,0.97,-0.17,-0.23,-1.23,0.06,9.98,-19.65,27.17,2
1560179,-0.0,0.97,-0.17,-0.16,-1.23,0.06,9.98,-19.65,27.17,2
1560192,-0.0,0.97,-0.17,-0.03,-1.21,0.07,9.98,-19.65,27.17,2
1560204,-0.0,0.97,-0.17,-0.05,-1.18,0.07,10.07,-19.66,27.23,2
1560215,-0.0,0.97,-0.17,-0.12,-1.15,0.04,10.07,-19.66,27.23,2
1560228,-0.0,0.97,-0.17,-0.17,-1.16,0.01,10.07,-19.66,27.23,2
1560238,-0.0,0.97,-0.17,-0.11,-1.16,0.02,10.07,-19.66,27.23,2
1560249,-0.0,0.97,-0.17,0.06,-1.2,0.03,10.05,-19.49,27.26,2
1560262,-0.0,0.97,-0.17,0.26,-1.12,0.06,10.05,-19.49,27.26,2
1560274,-0.0,0.97,-0.17,0.19,-1.09,0.03,10.05,-19.49,27.26,2
1560288,-0.0,0.97,-0.17,0.14,-1.07,0.08,10.05,-19.49,27.26,2
1560299,-0.0,0.97,-0.17,0.19,-1.03,0.1,10.09,-19.33,27.66,2
1560312,-0.0,0.97,-0.17,0.15,-1.04,0.09,10.09,-19.33,27.66,2
1560322,-0.0,0.97,-0.17,0.16,-1.04,0.05,10.09,-19.33,27.66,2
1560333,-0.0,0.97,-0.18,0.24,-1.08,0.04,10.09,-19.33,27.66,2
1560343,-0.0,0.97,-0.18,0.35,-1.13,0.06,10.09,-19.33,27.66,2
1560355,-0.0,0.97,-0.17,0.45,-1.16,0.12,10.07,-19.31,27.78,2
1560366,-0.0,0.96,-0.17,0.36,-1.14,0.1,10.07,-19.31,27.78,2
1560376,-0.0,0.96,-0.17,0.21,-1.13,0.09,10.07,-19.31,27.78,2
1560386,-0.0,0.96,-0.17,0.02,-1.15,0.1,10.07,-19.31,27.78,2
1560396,-0.0,0.96,-0.17,-0.23,-1.15,0.09,10.07,-19.31,27.78,2
1560409,-0.0,0.97,-0.18,-0.73,-1.11,0.06,10.06,-19.17,27.94,2
1560419,-0.0,0.97,-0.18,-0.82,-1.1,0.04,10.06,-19.17,27.94,2
1560430,-0.0,0.97,-0.18,-0.65,-1.12,0.07,10.06,-19.17,27.94,2
1560442,-0.0,0.97,-0.18,0.02,-1.15,0.11,10.06,-19.17,27.94,2
1560453,-0.0,0.97,-0.18,0.3,-1.16,0.12,9.98,-19.09,27.72,2
1560464,-0.0,0.97,-0.18,0.41,-1.14,0.08,9.98,-19.09,27.72,2
1560474,-0.0,0.97,-0.18,0.38,-1.1,0.03,9.98,-19.09,27.72,2
1560486,-0.0,0.96,-0.18,0.48,-1.11,0.08,9.98,-19.09,27.72,2
1560498,-0.0,0.96,-0.18,0.59,-1.12,0.09,9.97,-18.95,27.73,2
1560512,-0.0,0.97,-0.18,0.77,-1.2,0.12,9.97,-18.95,27.73,2
1560522,-0.0,0.97,-0.18,0.9,-1.15,0.1,9.97,-18.95,27.73,2
1560532,-0.0,0.96,-0.18,1.05,-1.14,0.1,9.97,-18.95,27.73,2
1560542,-0.0,0.96,-0.18,1.15,-1.16,0.11,9.97,-18.95,27.73,2
1560554,-0.0,0.96,-0.18,1.31,-1.18,0.14,10.04,-18.96,27.5,2
1560566,-0.0,0.96,-0.18,1.3,-1.18,0.13,10.04,-18.96,27.5,2
1560580,-0.0,0.97,-0.18,1.36,-1.16,0.09,10.04,-18.96,27.5,2
1560590,-0.0,0.96,-0.18,1.46,-1.11,0.08,10.04,-18.96,27.5,2
1560601,-0.0,0.97,-0.18,1.61,-1.08,0.09,9.95,-18.97,27.61,2
1560611,-0.0,0.97,-0.18,1.75,-1.08,0.1,9.95,-18.97,27.61,2
1560623,0.0,0.97,-0.18,1.72,-1.13,0.09,9.95,-18.97,27.61,2
1560633,0.0,0.97,-0.18,1.77,-1.51,0.19,9.95,-18.97,27.61,2
1560643,0.0,0.97,-0.18,2.07,-2.4,0.43,9.95,-18.97,27.61,2
1560654,0.0,0.97,-0.18,2.42,-3.17,0.6,9.97,-18.99,27.73,2
1560665,-0.0,0.96,-0.18,3.23,-4.25,0.8,9.97,-18.99,27.73,2
1560676,-0.0,0.96,-0.18,3.38,-4.28,0.75,9.97,-18.99,27.73,2
1560686,-0.0,0.96,-0.18,3.09,-3.67,0.66,9.97,-18.99,27.73,2
1560697,-0.0,0.96,-0.17,2.69,-3.13,0.58,10.02,-18.92,27.7,2
1560709,-0.0,0.96,-0.18,1.79,-2.34,0.37,10.02,-18.92,27.7,2
1560720,-0.0,0.96,-0.18,1.38,-2.03,0.28,10.02,-18.92,27.7,2
1560733,-0.0,0.96,-0.18,1.12,-1.64,0.22,10.02,-18.92,27.7,2
1560744,-0.0,0.97,-0.18,1.11,-1.59,0.21,10.02,-18.92,27.7,2
1560755,-0.0,0.97,-0.18,1.11,-1.56,0.18,10.1,-19.1,27.71,2
1560765,-0.0,0.97,-0.18,1.24,-1.5,0.16,10.1,-19.1,27.71,2
1560776,-0.0,0.97,-0.18,1.47,-1.3,0.16,10.1,-19.1,27.71,2
1560787,-0.0,0.96,-0.18,1.51,-1.26,0.14,10.1,-19.1,27.71,2
1560798,-0.0,0.96,-0.18,1.46,-1.25,0.14,10.18,-19.03,27.62,2
1560808,-0.0,0.96,-0.18,1.38,-1.23,0.13,10.18,-19.03,27.62,2
1560819,-0.0,0.96,-0.18,1.08,-1.18,0.1,10.18,-19.03,27.62,2
1560830,-0.0,0.96,-0.18,0.85,-1.18,0.09,10.18,-19.03,27.62,2
1560840,-0.0,0.96,-0.18,0.62,-1.15,0.06,10.18,-19.03,27.62,2
1560851,-0.0,0.96,-0.18,0.45,-1.15,0.05,10.18,-19.04,27.62,2
1560862,-0.0,0.97,-0.18,0.41,-1.1,0.04,10.18,-19.04,27.62,2
1560873,-0.0,0.97,-0.18,0.43,-1.1,0.06,10.18,-19.04,27.62,2
1560883,-0.0,0.97,-0.18,0.4,-1.1,0.07,10.18,-19.04,27.62,2
1560893,-0.0,0.96,-0.18,0.41,-1.13,0.08,10.18,-19.04,27.62,2
1560905,-0.0,0.96,-0.18,0.55,-1.14,0.05,10.2,-19.0,27.62,2
1560915,-0.0,0.96,-0.18,0.63,-1.12,0.05,10.2,-19.0,27.62,2
1560926,-0.0,0.96,-0.18,0.64,-1.13,0.07,10.2,-19.0,27.62,2
1560936,-0.0,0.97,-0.18,0.59,-1.12,0.05,10.2,-19.0,27.62,2
1560947,-0.0,0.97,-0.18,0.53,-1.16,0.06,10.13,-19.14,27.74,2
1560958,-0.0,0.96,-0.18,0.51,-1.18,0.1,10.13,-19.14,27.74,2
1560968,-0.0,0.96,-0.18,0.46,-1.1,0.06,10.13,-19.14,27.74,2
1560978,-0.0,0.97,-0.18,0.44,-1.09,0.08,10.13,-19.14,27.74,2
1560988,-0.0,0.97,-0.18,0.45,-1.13,0.07,10.13,-19.14,27.74,2
1561001,-0.0,0.96,-0.18,0.34,-1.13,0.08,10.2,-19.11,27.62,2
1561012,-0.0,0.96,-0.18,0.13,-1.15,0.07,10.2,-19.11,27.62,2
1561025,-0.0,0.96,-0.18,-0.51,-1.13,0.05,10.2,-19.11,27.62,2
