time,acc_x,acc_y,acc_z,gyro_x,gyro_y,gyro_z,mag_x,mag_y,mag_z,label
330430,0.01,0.17,-0.99,0.39,-1.81,1.21,5.87,24.12,42.41,1
330441,0.01,0.17,-0.98,0.6,-1.78,1.68,5.87,24.12,42.41,1
330452,0.01,0.17,-0.98,0.93,-1.59,2.32,5.87,24.12,42.41,1
330463,0.01,0.18,-0.98,1.71,-1.0,3.52,5.72,24.24,42.35,1
330475,0.01,0.18,-0.98,1.83,-0.74,3.97,5.72,24.24,42.35,1
330486,0.01,0.19,-0.98,1.62,-0.45,4.28,5.72,24.24,42.35,1
330497,0.01,0.19,-0.98,0.34,-0.1,4.56,5.72,24.24,42.35,1
330508,0.0,0.2,-0.98,-0.5,0.06,4.56,5.72,24.24,42.35,1
330519,0.0,0.2,-0.98,-1.59,0.22,4.4,5.87,24.27,42.46,1
330529,0.0,0.2,-0.98,-2.96,0.31,4.27,5.87,24.27,42.46,1
330539,0.0,0.2,-0.99,-4.5,0.26,4.2,5.87,24.27,42.46,1
330550,0.0,0.2,-1.01,-5.97,0.03,3.8,5.87,24.27,42.46,1
330563,-0.0,0.2,-1.01,-5.31,0.12,3.2,5.95,24.38,42.16,1
330576,-0.0,0.2,-1.01,-3.97,0.38,1.55,5.95,24.38,42.16,1
330588,0.0,0.2,-1.0,-4.4,0.36,0.85,5.95,24.38,42.16,1
330602,0.0,0.19,-1.0,-7.09,-0.45,0.29,5.95,24.38,42.16,1
330613,0.0,0.18,-1.0,-8.77,-0.87,0.3,5.94,24.44,42.39,1
330623,0.0,0.18,-1.0,-10.67,-1.21,0.43,5.94,24.44,42.39,1
330636,0.0,0.17,-1.0,-15.48,-1.72,0.55,5.94,24.44,42.39,1
330648,0.0,0.16,-1.01,-17.23,-2.12,0.67,5.94,24.44,42.39,1
330658,-0.0,0.16,-1.02,-17.24,-2.44,0.74,5.94,24.44,42.39,1
330670,-0.0,0.15,-1.01,-12.95,-2.12,0.42,6.01,24.76,42.39,1
330682,0.0,0.15,-1.0,-11.02,-1.68,0.28,6.01,24.76,42.39,1
330695,0.0,0.15,-0.99,-10.83,-1.07,0.17,6.01,24.76,42.39,1
330705,0.0,0.14,-0.98,-12.4,-1.13,0.08,6.01,24.76,42.39,1
330716,0.01,0.14,-0.98,-14.29,-1.23,-0.03,6.0,25.04,41.95,1
330729,0.01,0.14,-0.98,-14.93,0.32,-0.17,6.0,25.04,41.95,1
330740,0.01,0.12,-0.98,-14.0,1.29,-0.48,6.0,25.04,41.95,1
330751,0.01,0.12,-0.98,-13.0,2.3,-0.77,6.0,25.04,41.95,1
330762,0.02,0.11,-0.98,-12.36,3.32,-0.89,5.97,25.38,41.76,1
330773,0.01,0.1,-0.98,-12.62,4.23,-0.82,5.97,25.38,41.76,1
330785,0.01,0.1,-0.98,-13.98,4.89,-0.54,5.97,25.38,41.76,1
330798,0.02,0.09,-0.98,-20.71,5.34,0.59,5.97,25.38,41.76,1
330808,0.01,0.08,-0.99,-23.43,5.72,1.62,5.97,25.38,41.76,1
330819,0.01,0.07,-1.01,-25.12,6.17,3.02,5.94,25.74,41.67,1
330832,0.01,0.07,-1.02,-22.9,6.3,6.29,5.94,25.74,41.67,1
330843,-0.01,0.08,-1.03,-19.25,6.08,7.34,5.94,25.74,41.67,1
330854,-0.02,0.08,-1.02,-15.41,5.9,7.82,5.94,25.74,41.67,1
330866,-0.02,0.09,-1.01,-11.13,4.94,7.18,5.76,26.42,41.54,1
330877,-0.03,0.1,-1.01,-10.89,4.16,6.32,5.76,26.42,41.54,1
330888,-0.03,0.1,-1.01,-11.17,3.2,5.26,5.76,26.42,41.54,1
330899,-0.03,0.1,-1.02,-11.08,2.2,4.35,5.76,26.42,41.54,1
330912,-0.03,0.1,-1.02,-8.83,1.35,2.64,5.53,27.06,41.18,1
330923,-0.03,0.09,-1.02,-7.15,1.58,1.71,5.53,27.06,41.18,1
330934,-0.03,0.09,-1.02,-5.62,2.08,0.87,5.53,27.06,41.18,1
330946,-0.03,0.08,-1.02,-3.67,2.7,-0.31,5.53,27.06,41.18,1
330956,-0.02,0.08,-1.02,-3.28,2.4,-0.72,5.53,27.06,41.18,1
330966,-0.02,0.07,-1.01,-3.38,1.94,-1.02,5.38,27.63,41.09,1
330980,-0.02,0.06,-1.0,-5.64,1.74,-0.86,5.38,27.63,41.09,1
330992,-0.01,0.06,-1.0,-7.58,1.54,-0.44,5.38,27.63,41.09,1
331002,-0.02,0.06,-1.01,-9.24,1.24,0.11,5.38,27.63,41.09,1
331014,-0.03,0.05,-1.02,-9.52,1.01,0.88,5.22,28.1,40.99,1
331026,-0.03,0.05,-1.02,-8.21,1.15,0.74,5.22,28.1,40.99,1
331039,-0.03,0.04,-1.02,-4.88,2.77,0.11,5.22,28.1,40.99,1
331051,-0.03,0.04,-1.02,-3.71,3.53,-0.11,5.22,28.1,40.99,1
331062,-0.03,0.04,-1.02,-2.77,3.9,-0.33,5.2,28.54,40.9,1
331074,-0.03,0.03,-1.02,-1.31,3.78,-0.63,5.2,28.54,40.9,1
331086,-0.03,0.03,-1.02,-0.93,3.82,-0.57,5.2,28.54,40.9,1
331098,-0.03,0.03,-1.02,-1.08,3.71,-0.31,5.2,28.54,40.9,1
331109,-0.03,0.02,-1.02,-1.65,3.42,-0.45,5.2,28.54,40.9,1
331120,-0.03,0.02,-1.02,-2.5,2.76,-0.58,4.94,28.89,40.5,1
331133,-0.03,0.02,-1.02,-3.53,1.27,-0.72,4.94,28.89,40.5,1
331144,-0.03,0.03,-1.01,-3.53,0.61,-0.82,4.94,28.89,40.5,1
331156,-0.03,0.03,-1.01,-3.86,-0.06,-0.89,4.94,28.89,40.5,1
331169,-0.03,0.03,-1.0,-5.45,-0.87,-0.68,4.9,29.18,40.42,1
331179,-0.03,0.03,-1.0,-6.14,-1.06,-0.45,4.9,29.18,40.42,1
331190,-0.04,0.03,-1.0,-6.68,-1.16,-0.39,4.9,29.18,40.42,1
331201,-0.04,0.03,-1.0,-7.53,-0.88,-0.26,4.9,29.18,40.42,1
331213,-0.04,0.03,-1.0,-8.0,-0.64,-0.04,4.82,29.51,40.5,1
331225,-0.04,0.03,-1.0,-8.52,-0.39,-0.03,4.82,29.51,40.5,1
331237,-0.03,0.04,-1.01,-10.46,-0.39,-0.54,4.82,29.51,40.5,1
331249,-0.04,0.03,-1.02,-11.5,-0.83,-0.52,4.82,29.51,40.5,1
331259,-0.04,0.03,-1.02,-11.96,-1.36,-0.43,4.82,29.51,40.5,1
331272,-0.04,0.02,-1.03,-11.1,-2.37,-0.56,4.69,29.89,40.39,1
331283,-0.03,0.02,-1.03,-10.47,-3.08,-0.58,4.69,29.89,40.39,1
331297,-0.03,0.01,-1.02,-8.66,-5.09,-0.65,4.69,29.89,40.39,1
331309,-0.03,0.01,-1.02,-7.79,-6.04,-0.68,4.69,29.89,40.39,1
331320,-0.03,0.01,-1.01,-7.38,-6.62,-0.65,4.53,30.3,40.19,1
331332,-0.03,0.0,-1.0,-8.26,-6.85,-0.67,4.53,30.3,40.19,1
331344,-0.03,-0.0,-1.0,-9.09,-6.64,-0.76,4.53,30.3,40.19,1
331357,-0.03,-0.01,-1.0,-10.16,-5.53,-0.81,4.53,30.3,40.19,1
331368,-0.03,-0.02,-1.0,-10.51,-5.03,-0.69,4.5,30.62,39.99,1
331379,-0.03,-0.02,-1.01,-10.68,-4.77,-0.45,4.5,30.62,39.99,1
331389,-0.02,-0.02,-1.01,-10.41,-4.47,-0.18,4.5,30.62,39.99,1
331401,-0.02,-0.02,-1.02,-8.45,-4.45,0.46,4.5,30.62,39.99,1
331412,-0.02,-0.02,-1.02,-7.11,-5.07,0.45,4.64,31.11,39.64,1
331425,-0.03,-0.02,-1.01,-4.97,-6.7,-0.34,4.64,31.11,39.64,1
331436,-0.02,-0.02,-1.01,-4.75,-7.31,-0.64,4.64,31.11,39.64,1
331447,-0.01,-0.02,-1.01,-4.73,-7.42,-0.66,4.64,31.11,39.64,1
331462,-0.01,-0.03,-1.01,-2.86,-6.61,-0.2,4.83,31.44,39.26,1
331474,-0.01,-0.03,-1.01,-1.34,-5.82,-0.13,4.83,31.44,39.26,1
331486,-0.01,-0.04,-1.01,0.87,-4.37,-0.26,4.83,31.44,39.26,1
331498,-0.0,-0.04,-1.01,0.87,-4.08,-0.21,4.83,31.44,39.26,1
331508,-0.01,-0.05,-1.01,0.54,-3.85,0.01,4.83,31.44,39.26,1
331521,-0.0,-0.05,-1.02,0.64,-3.12,1.1,5.0,31.71,39.14,1
331532,-0.01,-0.04,-1.02,1.02,-2.83,1.8,5.0,31.71,39.14,1
331545,-0.01,-0.04,-1.02,1.26,-2.79,2.49,5.0,31.71,39.14,1
331556,-0.01,-0.04,-1.02,0.85,-3.15,2.44,5.0,31.71,39.14,1
331566,-0.01,-0.03,-1.02,0.23,-3.52,2.36,4.97,31.99,38.99,1
331579,-0.01,-0.03,-1.02,-0.56,-4.18,2.09,4.97,31.99,38.99,1
331590,-0.01,-0.03,-1.01,-0.69,-4.78,1.83,4.97,31.99,38.99,1
331602,-0.01,-0.03,-1.01,-0.86,-5.38,1.47,4.97,31.99,38.99,1
331615,-0.01,-0.03,-1.0,-1.03,-5.09,0.85,5.11,32.16,38.75,1
331626,-0.01,-0.03,-1.0,-0.7,-4.13,0.93,5.11,32.16,38.75,1
331637,-0.01,-0.03,-1.01,0.13,-2.97,1.16,5.11,32.16,38.75,1
331648,-0.01,-0.03,-1.01,2.33,-1.11,1.34,5.11,32.16,38.75,1
331659,-0.01,-0.02,-1.01,2.98,-0.7,1.2,5.11,32.16,38.75,1
331669,-0.01,-0.02,-1.01,2.89,-0.7,1.0,5.12,32.36,38.73,1
331682,-0.01,-0.02,-1.01,1.21,-1.15,0.66,5.12,32.36,38.73,1
331693,-0.01,-0.02,-1.02,0.4,-1.61,0.47,5.12,32.36,38.73,1
331704,-0.01,-0.02,-1.02,-0.16,-2.09,0.19,5.12,32.36,38.73,1
331716,-0.01,-0.02,-1.02,-0.57,-2.68,-0.62,5.17,32.41,38.64,1
331728,-0.01,-0.02,-1.01,-0.66,-2.84,-1.33,5.17,32.41,38.64,1
331739,-0.01,-0.03,-1.0,-0.89,-3.14,-1.9,5.17,32.41,38.64,1
331753,-0.0,-0.04,-1.0,-1.72,-3.52,-2.32,5.17,32.41,38.64,1
331764,-0.0,-0.04,-1.0,-1.89,-3.27,-2.35,5.36,32.5,38.45,1
331778,-0.0,-0.04,-1.0,-1.84,-2.08,-2.31,5.36,32.5,38.45,1
331790,-0.0,-0.05,-1.0,-1.81,-1.38,-2.3,5.36,32.5,38.45,1
331800,0.0,-0.05,-1.01,-1.85,-0.73,-2.24,5.36,32.5,38.45,1
331812,0.0,-0.05,-1.01,-1.85,0.46,-1.54,5.33,32.6,38.42,1
331823,0.0,-0.05,-1.02,-1.64,0.91,-1.13,5.33,32.6,38.42,1
331835,0.0,-0.04,-1.03,-1.33,1.23,-0.85,5.33,32.6,38.42,1
331847,-0.0,-0.04,-1.04,-0.67,0.79,-0.79,5.33,32.6,38.42,1
331859,-0.0,-0.04,-1.04,-0.44,0.27,-1.0,5.33,32.6,38.42,1
331870,-0.0,-0.04,-1.04,-0.23,-0.3,-1.23,5.36,32.78,38.37,1
331882,-0.0,-0.05,-1.02,0.14,-1.28,-1.55,5.36,32.78,38.37,1
331892,-0.0,-0.05,-1.02,0.3,-1.6,-1.65,5.36,32.78,38.37,1
331902,-0.0,-0.05,-1.01,0.42,-1.8,-1.7,5.36,32.78,38.37,1
331913,-0.0,-0.06,-1.01,0.51,-1.83,-1.68,5.23,32.9,38.12,1
331925,-0.01,-0.06,-1.0,1.6,-1.22,-1.09,5.23,32.9,38.12,1
331935,-0.0,-0.06,-1.0,2.52,-0.59,-0.66,5.23,32.9,38.12,1
331945,-0.0,-0.06,-1.0,3.34,0.12,-0.14,5.23,32.9,38.12,1
331955,-0.01,-0.06,-1.0,3.65,0.9,0.42,5.23,32.9,38.12,1
331967,-0.01,-0.05,-1.0,2.67,1.92,1.17,5.16,33.07,38.17,1
331979,-0.01,-0.05,-1.01,1.98,1.97,1.3,5.16,33.07,38.17,1
331992,-0.01,-0.04,-1.02,0.91,1.3,1.11,5.16,33.07,38.17,1
332002,-0.01,-0.04,-1.02,0.68,0.91,0.92,5.16,33.07,38.17,1
332013,-0.01,-0.04,-1.02,0.69,0.63,0.74,5.05,33.15,38.19,1
332026,-0.01,-0.04,-1.02,1.44,0.43,0.39,5.05,33.15,38.19,1
332036,-0.02,-0.04,-1.02,2.1,0.55,0.23,5.05,33.15,38.19,1
332048,-0.01,-0.04,-1.02,3.07,0.9,0.2,5.05,33.15,38.19,1
332062,-0.02,-0.04,-1.01,5.44,2.23,-0.03,5.05,33.19,38.2,1
332074,-0.01,-0.04,-1.01,6.52,3.06,-0.21,5.05,33.19,38.2,1
332088,-0.02,-0.04,-1.01,7.63,4.7,-0.65,5.05,33.19,38.2,1
332099,-0.02,-0.04,-1.01,7.9,5.71,-0.83,5.05,33.19,38.2,1
332113,-0.02,-0.04,-1.01,8.47,7.63,-1.0,5.04,33.04,38.24,1
332123,-0.02,-0.04,-1.01,8.67,8.04,-0.92,5.04,33.04,38.24,1
332133,-0.02,-0.04,-1.01,8.87,8.23,-0.73,5.04,33.04,38.24,1
332143,-0.02,-0.04,-1.01,9.02,8.37,-0.41,5.04,33.04,38.24,1
332153,-0.02,-0.04,-1.0,8.86,8.28,-0.09,5.04,33.04,38.24,1
332166,-0.02,-0.04,-1.01,6.87,5.86,-0.22,4.88,32.97,38.19,1
332177,-0.02,-0.04,-1.02,5.77,4.93,-0.17,4.88,32.97,38.19,1
332191,-0.03,-0.04,-1.03,5.04,3.67,0.15,4.88,32.97,38.19,1
332201,-0.03,-0.04,-1.03,5.64,3.26,0.32,4.88,32.97,38.19,1
332211,-0.03,-0.04,-1.03,6.35,2.99,0.42,4.8,32.77,38.49,1
332225,-0.03,-0.04,-1.03,7.13,2.41,0.53,4.8,32.77,38.49,1
332236,-0.03,-0.04,-1.03,7.15,1.98,0.51,4.8,32.77,38.49,1
332249,-0.03,-0.04,-1.03,6.94,0.54,0.61,4.8,32.77,38.49,1
332261,-0.03,-0.04,-1.02,6.62,-0.01,0.79,4.66,32.63,38.51,1
332272,-0.03,-0.04,-1.01,6.45,-0.12,0.99,4.66,32.63,38.51,1
332283,-0.03,-0.04,-1.01,6.82,0.35,1.33,4.66,32.63,38.51,1
332294,-0.03,-0.04,-1.0,7.0,0.42,1.56,4.66,32.63,38.51,1
332306,-0.03,-0.03,-1.0,6.92,0.38,1.85,4.66,32.63,38.51,1
332318,-0.02,-0.03,-0.99,5.91,0.19,2.71,4.56,32.45,38.39,1
332328,-0.03,-0.03,-0.99,5.33,0.21,3.09,4.56,32.45,38.39,1
332340,-0.03,-0.02,-1.0,5.06,0.26,3.39,4.56,32.45,38.39,1
332353,-0.03,-0.01,-1.0,5.48,0.23,3.85,4.56,32.45,38.39,1
332364,-0.03,-0.01,-1.0,5.74,0.16,3.99,4.57,32.2,38.6,1
332376,-0.04,-0.0,-1.0,5.78,0.1,4.13,4.57,32.2,38.6,1
332388,-0.04,0.0,-1.01,5.01,0.05,4.23,4.57,32.2,38.6,1
332399,-0.04,0.01,-1.01,4.63,0.14,4.17,4.57,32.2,38.6,1
332411,-0.05,0.01,-1.02,4.58,0.56,3.97,4.5,32.08,38.89,1
332422,-0.05,0.01,-1.02,4.98,1.19,3.6,4.5,32.08,38.89,1
332434,-0.05,0.01,-1.02,5.81,1.77,3.09,4.5,32.08,38.89,1
332445,-0.05,0.01,-1.02,6.53,2.07,2.65,4.5,32.08,38.89,1
332457,-0.05,0.01,-1.01,5.58,1.59,2.0,4.5,32.08,38.89,1
332468,-0.05,0.01,-1.01,4.16,0.94,1.65,4.45,31.94,38.69,1
332479,-0.05,0.01,-1.01,2.57,0.25,1.3,4.45,31.94,38.69,1
332491,-0.05,0.01,-1.02,0.36,-0.74,0.74,4.45,31.94,38.69,1
332502,-0.05,0.01,-1.02,0.36,-0.96,0.61,4.45,31.94,38.69,1
332513,-0.05,0.0,-1.01,0.86,-1.16,0.57,4.5,31.83,38.52,1
332524,-0.05,0.0,-1.01,2.05,-1.2,0.66,4.5,31.83,38.52,1
332535,-0.05,0.01,-1.01,2.17,-0.95,0.69,4.5,31.83,38.52,1
332546,-0.05,0.01,-1.0,1.93,-0.69,0.67,4.5,31.83,38.52,1
332561,-0.05,0.01,-1.0,1.07,-0.44,0.36,4.54,31.73,38.59,1
332571,-0.05,0.0,-1.0,0.85,-0.4,0.2,4.54,31.73,38.59,1
332582,-0.05,0.0,-1.0,0.77,-0.32,0.16,4.54,31.73,38.59,1
332594,-0.04,-0.0,-1.0,0.37,-0.32,0.59,4.54,31.73,38.59,1
332606,-0.05,-0.0,-1.0,-0.03,-0.17,0.76,4.54,31.73,38.59,1
332617,-0.05,-0.0,-1.01,-1.02,-0.15,0.61,4.45,31.78,38.74,1
332629,-0.05,0.0,-1.02,-2.42,0.08,0.13,4.45,31.78,38.74,1
332640,-0.05,-0.0,-1.02,-2.6,-0.02,-0.16,4.45,31.78,38.74,1
332654,-0.05,-0.0,-1.02,-2.61,-0.47,-0.7,4.45,31.78,38.74,1
332665,-0.05,-0.0,-1.01,-3.0,-0.34,-0.95,4.4,31.87,38.75,1
332677,-0.05,-0.0,-1.01,-3.63,0.27,-1.2,4.4,31.87,38.75,1
332689,-0.06,-0.01,-1.01,-4.99,1.05,-2.0,4.4,31.87,38.75,1
332699,-0.06,-0.01,-1.01,-5.14,0.75,-2.58,4.4,31.87,38.75,1
332709,-0.06,-0.01,-1.0,-5.0,0.28,-3.15,4.4,31.87,38.75,1
332720,-0.06,-0.02,-1.0,-4.88,-0.19,-3.67,4.31,31.92,38.7,1
332732,-0.05,-0.03,-0.99,-4.95,-0.77,-4.42,4.31,31.92,38.7,1
332744,-0.05,-0.03,-0.99,-5.03,-0.82,-4.51,4.31,31.92,38.7,1
332754,-0.04,-0.03,-0.99,-5.12,-0.69,-4.51,4.31,31.92,38.7,1
332767,-0.04,-0.04,-1.0,-4.93,-0.42,-4.09,4.06,31.97,38.53,1
332778,-0.04,-0.04,-1.0,-4.58,-0.4,-3.7,4.06,31.97,38.53,1
332792,-0.04,-0.04,-1.02,-3.5,-0.95,-2.86,4.06,31.97,38.53,1
332804,-0.04,-0.04,-1.03,-2.65,-1.44,-2.29,4.06,31.97,38.53,1
332816,-0.04,-0.04,-1.03,-1.31,-2.26,-1.76,3.96,32.1,38.28,1
332827,-0.04,-0.03,-1.03,-1.44,-2.52,-1.83,3.96,32.1,38.28,1
332839,-0.04,-0.03,-1.03,-1.51,-2.37,-1.83,3.96,32.1,38.28,1
332852,-0.05,-0.03,-1.03,-1.05,-1.48,-1.84,3.96,32.1,38.28,1
332863,-0.05,-0.03,-1.03,-0.44,-1.65,-1.95,3.9,32.28,38.34,1
332877,-0.05,-0.03,-1.03,0.51,-2.64,-2.03,3.9,32.28,38.34,1
332889,-0.05,-0.03,-1.03,0.8,-3.19,-1.94,3.9,32.28,38.34,1
332901,-0.05,-0.03,-1.02,0.57,-4.25,-1.95,3.9,32.28,38.34,1
332913,-0.05,-0.03,-1.01,0.15,-4.58,-1.97,3.91,32.35,38.22,1
332925,-0.05,-0.03,-1.02,0.17,-4.62,-1.86,3.91,32.35,38.22,1
332936,-0.05,-0.03,-1.02,2.4,-4.54,-1.69,3.91,32.35,38.22,1
332947,-0.05,-0.03,-1.01,4.05,-4.62,-1.56,3.91,32.35,38.22,1
332959,-0.04,-0.03,-1.01,5.4,-4.72,-1.35,3.91,32.35,38.22,1
332972,-0.04,-0.04,-1.0,5.88,-4.7,-1.19,3.82,32.43,38.3,1
332982,-0.03,-0.04,-0.99,5.19,-4.5,-0.94,3.82,32.43,38.3,1
332992,-0.03,-0.04,-0.99,4.14,-4.38,-0.57,3.82,32.43,38.3,1
333003,-0.03,-0.03,-0.99,3.18,-4.32,-0.04,3.82,32.43,38.3,1
333016,-0.04,-0.04,-1.0,3.38,-2.27,0.89,3.81,32.53,38.45,1
333028,-0.04,-0.03,-1.01,3.24,-1.57,1.14,3.81,32.53,38.45,1
333039,-0.04,-0.03,-1.0,2.33,-0.48,1.12,3.81,32.53,38.45,1
333050,-0.04,-0.03,-1.01,1.65,-0.05,1.05,3.81,32.53,38.45,1
333061,-0.04,-0.03,-1.01,0.91,0.04,1.1,3.83,32.6,38.43,1
333071,-0.04,-0.03,-1.02,0.63,0.11,1.19,3.83,32.6,38.43,1
333084,-0.04,-0.03,-1.02,1.69,0.11,1.06,3.83,32.6,38.43,1
333096,-0.04,-0.03,-1.02,2.47,-0.08,0.91,3.83,32.6,38.43,1
333110,-0.05,-0.03,-1.01,2.71,-0.45,0.81,3.8,32.64,38.31,1
333122,-0.05,-0.02,-1.01,2.05,-0.69,0.78,3.8,32.64,38.31,1
333135,-0.05,-0.03,-1.01,0.64,-0.87,0.74,3.8,32.64,38.31,1
333147,-0.05,-0.03,-1.02,0.36,-0.89,0.83,3.8,32.64,38.31,1
333157,-0.05,-0.03,-1.02,0.59,-0.91,0.95,3.8,32.64,38.31,1
333170,-0.04,-0.03,-1.01,1.38,-1.11,1.27,3.97,32.67,38.39,1
333180,-0.04,-0.03,-1.01,1.52,-1.29,1.34,3.97,32.67,38.39,1
333190,-0.04,-0.03,-1.01,1.55,-1.51,1.49,3.97,32.67,38.39,1
333200,-0.04,-0.03,-1.01,1.51,-1.71,1.6,3.97,32.67,38.39,1
333212,-0.04,-0.03,-1.01,1.29,-1.9,1.41,3.97,32.64,38.28,1
333222,-0.04,-0.03,-1.01,1.23,-1.91,1.17,3.97,32.64,38.28,1
333232,-0.04,-0.03,-1.01,1.18,-1.77,0.94,3.97,32.64,38.28,1
333242,-0.04,-0.03,-1.01,1.21,-1.6,0.74,3.97,32.64,38.28,1
333252,-0.04,-0.03,-1.01,1.2,-1.45,0.57,3.97,32.64,38.28,1
333265,-0.04,-0.03,-1.01,0.66,-1.47,0.41,3.98,32.67,38.3,1
333276,-0.04,-0.03,-1.01,0.35,-1.48,0.44,3.98,32.67,38.3,1
333290,-0.04,-0.03,-1.01,0.25,-1.1,0.61,3.98,32.67,38.3,1
333300,-0.04,-0.03,-1.01,0.64,-0.86,0.64,3.98,32.67,38.3,1
333311,-0.04,-0.03,-1.01,0.89,-0.67,0.59,4.07,32.72,38.32,1
333321,-0.04,-0.03,-1.01,0.71,-0.58,0.57,4.07,32.72,38.32,1
333333,-0.04,-0.03,-1.01,-0.26,-0.19,0.76,4.07,32.72,38.32,1
333343,-0.04,-0.03,-1.02,0.0,0.11,0.83,4.07,32.72,38.32,1
333354,-0.04,-0.03,-1.02,0.55,0.18,0.81,4.07,32.72,38.32,1
333367,-0.05,-0.03,-1.02,2.14,-0.39,0.56,4.2,32.71,38.35,1
333378,-0.05,-0.03,-1.02,3.15,-0.84,0.37,4.2,32.71,38.35,1
333391,-0.04,-0.03,-1.02,3.68,-1.61,0.02,4.2,32.71,38.35,1
333402,-0.04,-0.03,-1.01,3.03,-1.87,-0.05,4.2,32.71,38.35,1
333413,-0.04,-0.03,-1.01,2.04,-2.06,-0.01,4.12,32.68,38.35,1
333426,-0.04,-0.03,-1.01,0.83,-1.95,0.24,4.12,32.68,38.35,1
333436,-0.04,-0.04,-1.01,1.25,-1.7,0.45,4.12,32.68,38.35,1
333448,-0.04,-0.04,-1.01,2.3,-1.36,0.68,4.12,32.68,38.35,1
333462,-0.04,-0.03,-1.01,4.29,-0.68,1.18,4.11,32.64,38.34,1
333474,-0.04,-0.03,-1.01,4.54,-0.45,1.32,4.11,32.64,38.34,1
333488,-0.05,-0.03,-1.01,4.19,-0.42,1.36,4.11,32.64,38.34,1
333498,-0.05,-0.03,-1.01,3.94,-0.52,1.31,4.11,32.64,38.34,1
333508,-0.05,-0.03,-1.02,3.7,-0.55,1.22,4.11,32.64,38.34,1
333519,-0.05,-0.03,-1.02,3.65,-0.55,1.06,4.14,32.72,38.14,1
333531,-0.04,-0.03,-1.02,3.55,-0.78,0.72,4.14,32.72,38.14,1
333542,-0.04,-0.03,-1.01,3.13,-0.95,0.55,4.14,32.72,38.14,1
333556,-0.04,-0.03,-1.01,1.95,-1.24,0.39,4.14,32.72,38.14,1
333566,-0.04,-0.03,-1.01,1.58,-1.16,0.46,4.14,32.71,38.08,1
333578,-0.04,-0.03,-1.01,1.46,-1.05,0.54,4.14,32.71,38.08,1
333590,-0.04,-0.03,-1.01,2.16,-1.13,0.68,4.14,32.71,38.08,1
333602,-0.04,-0.03,-1.01,2.76,-1.2,0.77,4.14,32.71,38.08,1
333612,-0.04,-0.03,-1.01,3.02,-1.29,0.86,4.0,32.76,38.13,1
333624,-0.04,-0.03,-1.0,2.33,-1.55,0.8,4.0,32.76,38.13,1
333636,-0.04,-0.03,-1.0,1.69,-1.56,0.78,4.0,32.76,38.13,1
333649,-0.04,-0.03,-1.0,0.69,-1.43,0.81,4.0,32.76,38.13,1
333660,-0.04,-0.03,-1.01,0.44,-1.44,0.75,4.03,32.74,38.12,1
333672,-0.04,-0.03,-1.01,0.37,-1.51,0.6,4.03,32.74,38.12,1
333683,-0.04,-0.03,-1.01,0.99,-1.37,0.08,4.03,32.74,38.12,1
333694,-0.04,-0.03,-1.0,1.31,-1.23,-0.07,4.03,32.74,38.12,1
333706,-0.04,-0.03,-1.0,1.55,-1.06,-0.12,4.03,32.74,38.12,1
333718,-0.04,-0.03,-1.0,2.42,-0.69,0.19,4.1,32.79,38.26,1
333729,-0.04,-0.03,-1.01,3.0,-0.54,0.28,4.1,32.79,38.26,1
333739,-0.04,-0.02,-1.01,3.67,-0.45,0.3,4.1,32.79,38.26,1
333750,-0.04,-0.03,-1.01,4.36,-0.27,0.26,4.1,32.79,38.26,1
333763,-0.04,-0.03,-1.01,5.26,0.24,0.13,4.05,32.77,38.42,1
333775,-0.05,-0.03,-1.02,5.39,0.31,0.06,4.05,32.77,38.42,1
333788,-0.05,-0.03,-1.02,4.65,-0.01,-0.07,4.05,32.77,38.42,1
333800,-0.05,-0.03,-1.02,4.09,-0.34,-0.08,4.05,32.77,38.42,1
333812,-0.04,-0.03,-1.02,3.11,-0.75,0.1,4.03,32.69,38.51,1
333823,-0.04,-0.04,-1.02,2.73,-0.77,0.31,4.03,32.69,38.51,1
333833,-0.04,-0.04,-1.02,2.68,-0.6,0.5,4.03,32.69,38.51,1
333844,-0.04,-0.04,-1.02,3.05,-0.32,0.66,4.03,32.69,38.51,1
333855,-0.05,-0.04,-1.02,4.14,0.38,1.02,4.03,32.69,38.51,1
333867,-0.05,-0.04,-1.02,4.5,0.61,1.22,4.18,32.72,38.56,1
333879,-0.05,-0.04,-1.02,4.65,0.77,1.38,4.18,32.72,38.56,1
333889,-0.05,-0.04,-1.02,4.85,0.94,1.91,4.18,32.72,38.56,1
333900,-0.05,-0.03,-1.02,4.99,0.85,2.22,4.18,32.72,38.56,1
333911,-0.05,-0.03,-1.02,5.21,0.64,2.45,4.1,32.74,38.48,1
333924,-0.05,-0.03,-1.02,5.37,0.12,2.8,4.1,32.74,38.48,1
333935,-0.05,-0.03,-1.02,5.07,-0.21,2.92,4.1,32.74,38.48,1
333946,-0.05,-0.02,-1.02,4.59,-0.63,2.99,4.1,32.74,38.48,1
333961,-0.05,-0.02,-1.02,3.83,-1.48,2.77,4.09,32.73,38.56,1
333973,-0.05,-0.02,-1.02,4.01,-1.67,2.58,4.09,32.73,38.56,1
333983,-0.05,-0.02,-1.02,4.96,-1.74,2.21,4.09,32.73,38.56,1
333994,-0.04,-0.01,-1.01,5.17,-1.86,2.16,4.09,32.73,38.56,1
334005,-0.04,-0.01,-1.01,5.12,-2.03,2.16,4.09,32.73,38.56,1
334016,-0.04,-0.01,-1.01,5.0,-2.16,2.19,4.05,32.77,38.39,1
334027,-0.04,-0.01,-1.0,5.06,-1.98,2.26,4.05,32.77,38.39,1
334038,-0.04,0.0,-1.0,5.29,-1.67,2.15,4.05,32.77,38.39,1
334049,-0.05,0.01,-1.0,5.4,-1.47,1.88,4.05,32.77,38.39,1
334062,-0.05,0.01,-1.0,4.5,-1.54,1.04,4.05,32.64,38.36,1
334074,-0.05,0.01,-1.0,3.63,-1.74,0.69,4.05,32.64,38.36,1
334086,-0.05,0.01,-1.0,1.97,-1.87,0.12,4.05,32.64,38.36,1
334098,-0.05,0.01,-1.01,1.44,-1.92,-0.16,4.05,32.64,38.36,1
334109,-0.05,0.01,-1.01,1.31,-1.96,-0.39,4.02,32.53,38.44,1
334119,-0.05,0.01,-1.01,1.59,-1.96,-0.58,4.02,32.53,38.44,1
334130,-0.05,0.01,-1.01,2.5,-1.69,-0.86,4.02,32.53,38.44,1
334141,-0.05,0.01,-1.01,2.65,-1.71,-0.95,4.02,32.53,38.44,1
334151,-0.05,0.01,-1.01,2.39,-1.74,-1.06,4.02,32.53,38.44,1
334162,-0.05,0.01,-1.01,1.86,-1.83,-1.22,4.11,32.54,38.45,1
334173,-0.05,0.01,-1.01,1.48,-1.9,-1.57,4.11,32.54,38.45,1
334184,-0.05,0.01,-1.01,2.0,-1.75,-1.71,4.11,32.54,38.45,1
334194,-0.05,0.01,-1.01,2.66,-1.69,-1.83,4.11,32.54,38.45,1
334204,-0.05,0.01,-1.0,2.91,-1.73,-1.97,4.11,32.54,38.45,1
334216,-0.05,0.01,-1.0,1.64,-1.72,-2.22,4.09,32.49,38.36,1
334227,-0.04,0.0,-1.01,0.66,-1.68,-2.27,4.09,32.49,38.36,1
334237,-0.04,-0.0,-1.01,0.33,-1.44,-2.26,4.09,32.49,38.36,1
334247,-0.04,-0.01,-1.01,0.91,-1.24,-2.22,4.09,32.49,38.36,1
334261,-0.04,-0.01,-1.01,2.8,-0.94,-2.07,4.11,32.43,38.77,1
334273,-0.04,-0.01,-1.01,3.02,-0.86,-1.92,4.11,32.43,38.77,1
334284,-0.04,-0.01,-1.01,1.99,-0.72,-1.61,4.11,32.43,38.77,1
334295,-0.04,-0.02,-1.01,1.66,-0.64,-1.44,4.11,32.43,38.77,1
334307,-0.04,-0.02,-1.02,1.9,-0.48,-1.21,4.11,32.43,38.77,1
334319,-0.04,-0.02,-1.02,3.53,-0.17,-0.43,4.1,32.44,38.71,1
334330,-0.04,-0.02,-1.01,4.24,-0.15,-0.07,4.1,32.44,38.71,1
334342,-0.04,-0.02,-1.01,4.51,-0.32,0.24,4.1,32.44,38.71,1
334355,-0.05,-0.02,-1.01,3.68,-0.71,0.53,4.1,32.44,38.71,1
334366,-0.05,-0.02,-1.01,2.94,-0.89,0.57,4.05,32.27,38.79,1
334379,-0.05,-0.01,-1.01,1.74,-1.33,0.3,4.05,32.27,38.79,1
334390,-0.04,-0.01,-1.01,1.22,-1.48,0.19,4.05,32.27,38.79,1
334402,-0.04,-0.01,-1.01,0.59,-1.61,0.15,4.05,32.27,38.79,1
334415,-0.04,-0.01,-1.01,-0.68,-1.87,0.17,4.02,32.22,38.63,1
334425,-0.04,-0.01,-1.01,-0.61,-1.78,0.2,4.02,32.22,38.63,1
334436,-0.04,-0.01,-1.01,0.04,-1.56,0.27,4.02,32.22,38.63,1
334448,-0.04,-0.01,-1.01,1.85,-1.25,0.35,4.02,32.22,38.63,1
334460,-0.04,-0.01,-1.0,2.21,-1.14,0.38,3.92,32.17,38.59,1
334471,-0.04,-0.01,-1.0,2.02,-1.1,0.41,3.92,32.17,38.59,1
334483,-0.04,-0.01,-1.0,0.8,-1.23,0.25,3.92,32.17,38.59,1
334495,-0.04,-0.01,-1.0,0.41,-1.19,0.18,3.92,32.17,38.59,1
334509,-0.04,-0.01,-1.01,1.17,-0.45,0.41,3.95,32.2,38.67,1
334520,-0.04,-0.01,-1.01,1.88,-0.04,0.41,3.95,32.2,38.67,1
334533,-0.04,-0.01,-1.01,1.97,0.28,0.11,3.95,32.2,38.67,1
334544,-0.05,-0.01,-1.01,1.29,0.14,-0.07,3.95,32.2,38.67,1
334556,-0.05,-0.01,-1.01,0.66,-0.0,-0.23,3.95,32.2,38.67,1
334569,-0.05,-0.01,-1.02,0.6,-0.12,-0.22,4.01,32.29,38.69,1
334581,-0.05,-0.01,-1.02,1.07,-0.08,-0.09,4.01,32.29,38.69,1
334594,-0.05,-0.01,-1.02,1.93,-0.17,-0.04,4.01,32.29,38.69,1
334605,-0.05,-0.01,-1.02,2.12,-0.16,-0.02,4.01,32.29,38.69,1
334616,-0.05,-0.01,-1.02,2.29,-0.1,0.09,3.94,32.23,38.47,1
334629,-0.05,-0.01,-1.01,2.46,0.06,0.47,3.94,32.23,38.47,1
334641,-0.05,-0.01,-1.01,2.38,0.11,0.7,3.94,32.23,38.47,1
334653,-0.05,-0.01,-1.01,1.6,-0.3,0.93,3.94,32.23,38.47,1
334666,-0.05,-0.01,-1.02,1.26,-0.58,0.95,4.01,32.21,38.54,1
334676,-0.05,-0.02,-1.02,1.07,-0.84,0.85,4.01,32.21,38.54,1
334689,-0.05,-0.02,-1.01,1.13,-1.11,0.49,4.01,32.21,38.54,1
334700,-0.05,-0.02,-1.01,1.19,-1.02,0.42,4.01,32.21,38.54,1
334711,-0.05,-0.02,-1.01,1.28,-0.89,0.46,3.95,32.24,38.69,1
334722,-0.05,-0.02,-1.01,0.96,-0.87,0.7,3.95,32.24,38.69,1
334733,-0.05,-0.02,-1.01,0.6,-0.99,0.79,3.95,32.24,38.69,1
334745,-0.05,-0.02,-1.01,0.36,-1.13,0.93,3.95,32.24,38.69,1
334755,-0.05,-0.02,-1.01,0.47,-1.14,1.08,3.95,32.24,38.69,1
334768,-0.05,-0.02,-1.02,1.49,-0.79,1.47,3.84,32.32,38.79,1
334778,-0.05,-0.02,-1.02,1.94,-0.63,1.62,3.84,32.32,38.79,1
334788,-0.05,-0.01,-1.02,2.18,-0.69,1.62,3.84,32.32,38.79,1
334801,-0.06,-0.01,-1.02,1.99,-0.98,1.64,3.84,32.32,38.79,1
334813,-0.06,-0.01,-1.02,2.09,-1.02,1.68,3.82,32.32,38.81,1
334825,-0.06,-0.01,-1.02,2.72,-1.15,1.45,3.82,32.32,38.81,1
334837,-0.06,-0.01,-1.01,2.8,-1.3,1.25,3.82,32.32,38.81,1
334847,-0.05,-0.01,-1.01,2.52,-1.5,1.07,3.82,32.32,38.81,1
334857,-0.05,-0.01,-1.01,2.15,-1.65,1.01,3.82,32.32,38.81,1
334869,-0.05,-0.01,-1.01,2.31,-1.54,0.99,3.88,32.26,38.77,1
334880,-0.05,-0.0,-1.01,2.78,-1.37,0.91,3.88,32.26,38.77,1
334890,-0.05,-0.0,-1.01,3.12,-1.23,0.86,3.88,32.26,38.77,1
334900,-0.05,-0.0,-1.01,3.15,-1.1,0.78,3.88,32.26,38.77,1
334913,-0.06,0.0,-1.01,2.25,-1.21,0.48,3.81,32.16,38.86,1
334923,-0.06,0.0,-1.01,1.71,-1.33,0.28,3.81,32.16,38.86,1
334933,-0.06,-0.0,-1.01,1.34,-1.42,0.07,3.81,32.16,38.86,1
334943,-0.06,-0.0,-1.02,1.23,-1.47,-0.07,3.81,32.16,38.86,1
334954,-0.06,-0.0,-1.02,1.78,-1.48,-0.34,3.81,32.16,38.86,1
334966,-0.06,0.0,-1.02,1.97,-1.54,-0.56,4.02,32.09,39.04,1
334978,-0.06,-0.0,-1.01,1.82,-1.62,-0.8,4.02,32.09,39.04,1
334990,-0.05,-0.0,-1.02,1.28,-1.84,-1.04,4.02,32.09,39.04,1
335002,-0.05,-0.0,-1.02,1.39,-1.85,-1.08,4.02,32.09,39.04,1
335013,-0.05,-0.0,-1.02,1.72,-1.86,-1.08,4.02,32.04,38.88,1
335025,-0.05,-0.01,-1.01,1.97,-1.95,-1.25,4.02,32.04,38.88,1
335036,-0.05,-0.01,-1.01,1.81,-1.96,-1.35,4.02,32.04,38.88,1
335047,-0.05,-0.01,-1.01,1.75,-1.95,-1.39,4.02,32.04,38.88,1
335060,-0.05,-0.01,-1.01,2.1,-1.67,-1.28,4.04,32.08,38.8,1
335072,-0.05,-0.01,-1.01,2.32,-1.51,-1.16,4.04,32.08,38.8,1
335083,-0.05,-0.01,-1.01,2.11,-1.49,-1.13,4.04,32.08,38.8,1
335094,-0.05,-0.02,-1.01,1.49,-1.6,-1.07,4.04,32.08,38.8,1
335106,-0.05,-0.02,-1.01,0.76,-1.74,-0.97,4.04,32.08,38.8,1
335119,-0.05,-0.02,-1.02,0.38,-1.89,-0.66,4.09,32.11,38.84,1
335131,-0.05,-0.02,-1.02,0.87,-1.79,-0.5,4.09,32.11,38.84,1
335141,-0.05,-0.02,-1.01,1.49,-1.75,-0.37,4.09,32.11,38.84,1
335152,-0.05,-0.02,-1.01,1.86,-1.83,-0.12,4.09,32.11,38.84,1
335164,-0.05,-0.02,-1.01,1.71,-1.83,-0.04,4.07,32.19,38.62,1
335176,-0.04,-0.02,-1.01,1.64,-1.76,0.1,4.07,32.19,38.62,1
335188,-0.04,-0.02,-1.01,2.21,-1.61,0.41,4.07,32.19,38.62,1
335199,-0.04,-0.02,-1.01,2.56,-1.53,0.63,4.07,32.19,38.62,1
335212,-0.04,-0.01,-1.01,2.94,-1.34,0.91,4.14,32.25,38.52,1
335223,-0.04,-0.01,-1.0,2.95,-1.22,1.06,4.14,32.25,38.52,1
335233,-0.04,-0.01,-1.01,2.76,-1.09,1.15,4.14,32.25,38.52,1
335243,-0.04,-0.01,-1.01,2.42,-1.05,1.22,4.14,32.25,38.52,1
335253,-0.05,-0.01,-1.01,2.13,-1.05,1.29,4.14,32.25,38.52,1
335266,-0.05,-0.01,-1.01,2.24,-0.98,1.14,4.2,32.24,38.51,1
335276,-0.05,-0.01,-1.01,2.5,-0.97,0.92,4.2,32.24,38.51,1
335286,-0.05,-0.01,-1.01,2.63,-1.02,0.67,4.2,32.24,38.51,1
335296,-0.05,-0.01,-1.01,2.6,-0.98,0.62,4.2,32.24,38.51,1
335309,-0.05,-0.01,-1.01,2.48,-0.76,0.62,4.16,32.19,38.53,1
335319,-0.05,-0.01,-1.01,2.65,-0.81,0.51,4.16,32.19,38.53,1
335329,-0.05,-0.01,-1.01,2.79,-0.91,0.29,4.16,32.19,38.53,1
335342,-0.05,-0.01,-1.01,3.07,-1.17,-0.05,4.16,32.19,38.53,1
335353,-0.05,-0.01,-1.01,3.14,-1.14,-0.1,4.16,32.19,38.53,1
335364,-0.05,-0.01,-1.01,3.28,-1.01,-0.07,4.26,32.16,38.79,1
335375,-0.05,-0.01,-1.01,4.09,-0.7,0.11,4.26,32.16,38.79,1
335386,-0.05,-0.01,-1.01,4.54,-0.6,0.21,4.26,32.16,38.79,1
335398,-0.05,-0.01,-1.01,4.95,-0.49,0.3,4.26,32.16,38.79,1
335411,-0.05,-0.01,-1.01,5.39,-0.33,0.37,4.21,32.03,38.9,1
335422,-0.05,-0.01,-1.01,5.24,-0.31,0.36,4.21,32.03,38.9,1
335433,-0.05,-0.0,-1.01,4.88,-0.24,0.36,4.21,32.03,38.9,1
335444,-0.05,-0.0,-1.01,4.29,-0.46,0.33,4.21,32.03,38.9,1
335455,-0.05,-0.0,-1.02,4.0,-0.76,0.24,4.21,32.03,38.9,1
335466,-0.05,0.0,-1.02,3.63,-1.05,0.14,4.19,31.98,38.99,1
335476,-0.05,0.0,-1.02,3.09,-1.29,-0.0,4.19,31.98,38.99,1
335487,-0.05,0.0,-1.01,1.95,-1.67,-0.27,4.19,31.98,38.99,1
335498,-0.05,0.0,-1.01,1.75,-1.71,-0.36,4.19,31.98,38.99,1
335509,-0.05,0.0,-1.01,1.83,-1.68,-0.47,4.19,31.92,38.79,1
335522,-0.05,0.0,-1.01,2.21,-1.47,-0.6,4.19,31.92,38.79,1
335533,-0.05,0.0,-1.0,2.02,-1.36,-0.64,4.19,31.92,38.79,1
335543,-0.05,0.0,-1.0,1.55,-1.34,-0.67,4.19,31.92,38.79,1
335553,-0.05,-0.0,-1.0,0.84,-1.37,-0.67,4.19,31.92,38.79,1
335566,-0.05,-0.0,-1.01,-0.52,-1.58,-0.64,4.15,31.78,38.78,1
335578,-0.05,-0.0,-1.01,-0.86,-1.65,-0.74,4.15,31.78,38.78,1
335591,-0.05,-0.01,-1.01,-0.93,-1.81,-0.87,4.15,31.78,38.78,1
335602,-0.05,-0.01,-1.01,-0.64,-1.87,-0.87,4.15,31.78,38.78,1
335613,-0.05,-0.01,-1.02,-0.15,-1.82,-0.7,4.07,31.85,38.88,1
335625,-0.05,-0.01,-1.01,1.32,-1.68,-0.43,4.07,31.85,38.88,1
335636,-0.05,-0.01,-1.01,1.88,-1.64,-0.36,4.07,31.85,38.88,1
335646,-0.05,-0.01,-1.01,2.02,-1.65,-0.36,4.07,31.85,38.88,1
335657,-0.05,-0.01,-1.01,1.72,-1.69,-0.35,4.01,31.9,38.66,1
335669,-0.05,-0.01,-1.01,0.6,-1.94,-0.23,4.01,31.9,38.66,1
335681,-0.05,-0.01,-1.01,0.36,-1.98,-0.17,4.01,31.9,38.66,1
335694,-0.05,-0.01,-1.01,1.03,-1.88,-0.16,4.01,31.9,38.66,1
335705,-0.05,-0.01,-1.01,1.34,-1.76,-0.2,4.01,31.9,38.66,1
335716,-0.05,-0.01,-1.01,1.26,-1.66,-0.27,4.05,32.04,38.6,1
335727,-0.05,-0.01,-1.01,0.64,-1.56,-0.28,4.05,32.04,38.6,1
335738,-0.05,-0.01,-1.02,0.91,-1.54,-0.15,4.05,32.04,38.6,1
335750,-0.05,-0.01,-1.02,1.63,-1.54,0.0,4.05,32.04,38.6,1
335763,-0.05,-0.0,-1.01,2.57,-1.56,0.05,4.12,32.03,38.6,1
335775,-0.05,-0.0,-1.01,2.15,-1.57,-0.05,4.12,32.03,38.6,1
335788,-0.05,-0.0,-1.01,0.44,-1.69,-0.27,4.12,32.03,38.6,1
335799,-0.05,-0.0,-1.01,0.25,-1.68,-0.32,4.12,32.03,38.6,1
335810,-0.05,-0.0,-1.02,0.84,-1.5,-0.33,4.08,32.22,38.63,1
335824,-0.05,-0.0,-1.01,2.78,-0.99,-0.38,4.08,32.22,38.63,1
335835,-0.05,-0.0,-1.01,2.95,-0.88,-0.43,4.08,32.22,38.63,1
335846,-0.05,-0.0,-1.01,2.44,-0.94,-0.42,4.08,32.22,38.63,1
335859,-0.05,-0.01,-1.01,1.14,-1.24,-0.42,4.12,32.19,38.78,1
335871,-0.05,-0.01,-1.01,1.18,-1.29,-0.4,4.12,32.19,38.78,1
335883,-0.05,-0.01,-1.01,1.92,-1.0,-0.47,4.12,32.19,38.78,1
335895,-0.05,-0.01,-1.01,1.87,-0.94,-0.46,4.12,32.19,38.78,1
335908,-0.05,-0.01,-1.01,0.44,-1.14,-0.32,4.12,32.23,38.59,1
335919,-0.05,-0.01,-1.01,-0.42,-1.37,-0.24,4.12,32.23,38.59,1
335931,-0.05,-0.01,-1.01,-1.04,-1.58,-0.17,4.12,32.23,38.59,1
335942,-0.05,-0.01,-1.01,-1.91,-2.12,-0.01,4.12,32.23,38.59,1
335954,-0.05,-0.01,-1.02,-2.08,-2.34,0.07,4.12,32.23,38.59,1
335965,-0.04,-0.01,-1.02,-1.97,-2.44,0.19,4.19,32.28,38.72,1
335976,-0.04,-0.01,-1.02,-0.84,-2.42,0.42,4.19,32.28,38.72,1
335987,-0.04,-0.01,-1.01,-0.04,-2.34,0.41,4.19,32.28,38.72,1
335998,-0.04,-0.01,-1.0,0.63,-2.24,0.36,4.19,32.28,38.72,1
336009,-0.04,-0.02,-1.0,1.14,-2.1,0.35,4.19,32.34,38.64,1
336021,-0.04,-0.02,-1.0,1.5,-1.83,0.53,4.19,32.34,38.64,1
336033,-0.04,-0.02,-1.0,1.58,-1.67,0.59,4.19,32.34,38.64,1
336046,-0.05,-0.01,-1.0,2.24,-1.28,0.61,4.19,32.34,38.64,1
336058,-0.04,-0.01,-1.0,2.46,-1.15,0.5,4.18,32.37,38.32,1
336068,-0.05,-0.01,-1.01,2.61,-0.98,0.5,4.18,32.37,38.32,1
336078,-0.05,-0.01,-1.01,2.83,-0.81,0.55,4.18,32.37,38.32,1
336090,-0.05,-0.01,-1.01,3.63,-0.61,0.45,4.18,32.37,38.32,1
336102,-0.05,-0.01,-1.01,3.72,-0.55,0.32,4.18,32.37,38.32,1
336114,-0.05,-0.01,-1.01,2.87,-0.61,0.09,4.32,32.36,38.59,1
336125,-0.04,-0.01,-1.02,2.18,-0.69,0.01,4.32,32.36,38.59,1
336135,-0.05,-0.01,-1.02,1.83,-0.78,0.05,4.32,32.36,38.59,1
336146,-0.05,-0.01,-1.02,2.05,-0.95,0.07,4.32,32.36,38.59,1
336160,-0.05,-0.01,-1.02,3.4,-0.98,-0.16,4.34,32.39,38.86,1
336170,-0.05,-0.01,-1.02,3.71,-0.88,-0.24,4.34,32.39,38.86,1
336180,-0.05,-0.01,-1.01,3.54,-0.9,-0.31,4.34,32.39,38.86,1
336191,-0.05,-0.01,-1.02,2.32,-1.29,-0.21,4.34,32.39,38.86,1
336202,-0.05,-0.01,-1.02,1.96,-1.58,-0.19,4.34,32.39,38.86,1
336213,-0.05,-0.01,-1.02,2.0,-1.84,-0.29,4.43,32.49,39.02,1
336227,-0.05,-0.01,-1.01,2.24,-1.97,-0.61,4.43,32.49,39.02,1
336239,-0.05,-0.01,-1.01,2.1,-1.88,-0.6,4.43,32.49,39.02,1
336252,-0.04,-0.01,-1.01,1.95,-1.6,-0.36,4.43,32.49,39.02,1
336264,-0.04,-0.01,-1.0,2.08,-1.44,-0.26,4.39,32.42,38.82,1
336274,-0.04,-0.01,-1.0,2.14,-1.28,-0.25,4.39,32.42,38.82,1
336285,-0.04,-0.01,-1.01,1.71,-1.16,-0.18,4.39,32.42,38.82,1
336296,-0.04,-0.01,-1.01,1.32,-1.21,-0.12,4.39,32.42,38.82,1
336307,-0.04,-0.01,-1.01,0.95,-1.36,-0.04,4.34,32.39,38.95,1
336318,-0.04,-0.01,-1.02,0.9,-1.55,-0.04,4.34,32.39,38.95,1
336330,-0.04,-0.01,-1.02,1.68,-1.52,-0.15,4.34,32.39,38.95,1
336341,-0.04,-0.01,-1.02,2.26,-1.48,-0.12,4.34,32.39,38.95,1
336352,-0.04,-0.01,-1.02,2.67,-1.37,-0.01,4.34,32.39,38.95,1
336365,-0.05,-0.01,-1.01,2.78,-1.28,0.16,4.3,32.32,39.1,1
336375,-0.05,-0.01,-1.01,2.73,-1.35,0.09,4.3,32.32,39.1,1
336385,-0.05,-0.01,-1.01,2.75,-1.39,0.01,4.3,32.32,39.1,1
336398,-0.05,-0.01,-1.01,2.84,-1.37,-0.13,4.3,32.32,39.1,1
336409,-0.04,-0.01,-1.0,2.65,-1.4,-0.22,4.34,32.4,39.18,1
336422,-0.04,-0.01,-1.01,2.2,-1.2,-0.05,4.34,32.4,39.18,1
336434,-0.04,-0.01,-1.01,2.39,-1.01,0.14,4.34,32.4,39.18,1
336445,-0.04,-0.01,-1.01,2.76,-0.84,0.24,4.34,32.4,39.18,1
336457,-0.04,-0.01,-1.01,3.16,-0.69,0.32,4.29,32.47,39.19,1
336468,-0.05,-0.01,-1.01,3.43,-0.62,0.31,4.29,32.47,39.19,1
336479,-0.04,-0.01,-1.01,3.3,-0.75,0.17,4.29,32.47,39.19,1
336490,-0.04,-0.01,-1.01,2.97,-0.99,0.12,4.29,32.47,39.19,1
336502,-0.04,-0.01,-1.01,2.59,-1.34,-0.02,4.29,32.47,39.19,1
336513,-0.04,-0.01,-1.01,2.76,-1.33,-0.1,4.37,32.32,39.08,1
336523,-0.04,-0.01,-1.01,3.01,-1.22,-0.13,4.37,32.32,39.08,1
336533,-0.04,-0.01,-1.01,3.24,-1.1,-0.11,4.37,32.32,39.08,1
336545,-0.04,-0.01,-1.01,3.39,-0.98,-0.1,4.37,32.32,39.08,1
336556,-0.05,-0.0,-1.01,3.18,-0.98,-0.12,4.31,32.32,38.93,1
336569,-0.05,-0.01,-1.0,2.79,-0.82,-0.12,4.31,32.32,38.93,1
336580,-0.05,-0.01,-1.01,2.72,-0.68,-0.13,4.31,32.32,38.93,1
336592,-0.05,-0.01,-1.01,2.78,-0.55,-0.09,4.31,32.32,38.93,1
336603,-0.05,-0.01,-1.01,2.92,-0.52,0.0,4.31,32.32,38.93,1
336615,-0.05,-0.01,-1.01,2.83,-0.53,0.06,4.24,32.3,39.04,1
336627,-0.05,-0.01,-1.01,2.61,-0.57,0.04,4.24,32.3,39.04,1
336639,-0.05,-0.0,-1.02,1.97,-0.79,0.06,4.24,32.3,39.04,1
336651,-0.05,-0.0,-1.02,1.8,-0.98,0.07,4.24,32.3,39.04,1
336663,-0.05,-0.0,-1.02,2.33,-1.21,0.02,4.25,32.17,39.04,1
336674,-0.05,-0.0,-1.02,2.81,-1.15,-0.02,4.25,32.17,39.04,1
336686,-0.05,-0.0,-1.02,3.26,-1.08,-0.05,4.25,32.17,39.04,1
336696,-0.05,-0.0,-1.01,3.56,-1.06,-0.02,4.25,32.17,39.04,1
336709,-0.04,-0.0,-1.01,3.64,-1.07,0.01,4.22,32.14,39.11,1
336719,-0.05,-0.0,-1.01,3.45,-1.13,0.04,4.22,32.14,39.11,1
336729,-0.05,-0.0,-1.01,3.14,-1.16,0.03,4.22,32.14,39.11,1
336739,-0.05,-0.0,-1.01,2.81,-1.23,0.06,4.22,32.14,39.11,1
336751,-0.05,-0.0,-1.01,2.26,-1.22,0.15,4.22,32.14,39.11,1
336762,-0.05,-0.0,-1.01,2.22,-1.09,0.18,4.13,32.1,39.07,1
336774,-0.05,-0.0,-1.01,2.32,-0.72,0.19,4.13,32.1,39.07,1
336786,-0.05,-0.0,-1.01,2.38,-0.63,0.23,4.13,32.1,39.07,1
336796,-0.05,-0.0,-1.01,2.46,-0.61,0.34,4.13,32.1,39.07,1
336807,-0.05,-0.0,-1.01,2.56,-0.73,0.32,4.18,32.18,39.13,1
336818,-0.05,0.0,-1.01,2.54,-1.2,0.02,4.18,32.18,39.13,1
336829,-0.05,0.0,-1.01,2.27,-1.34,-0.12,4.18,32.18,39.13,1
336840,-0.04,0.0,-1.01,1.96,-1.42,-0.16,4.18,32.18,39.13,1
336851,-0.04,-0.0,-1.01,1.73,-1.47,-0.15,4.18,32.18,39.13,1
336864,-0.04,-0.0,-1.01,1.84,-1.47,-0.1,4.26,32.02,39.14,1
336874,-0.04,-0.0,-1.01,2.13,-1.29,-0.04,4.26,32.02,39.14,1
336884,-0.05,-0.0,-1.01,2.42,-1.02,0.02,4.26,32.02,39.14,1
336895,-0.05,-0.0,-1.01,2.36,-0.63,0.26,4.26,32.02,39.14,1
336907,-0.05,0.0,-1.01,1.98,-0.57,0.39,4.22,31.99,39.22,1
336917,-0.05,0.0,-1.02,1.74,-0.58,0.47,4.22,31.99,39.22,1
336927,-0.05,0.0,-1.02,1.8,-0.68,0.39,4.22,31.99,39.22,1
336938,-0.05,0.0,-1.02,2.42,-1.02,0.04,4.22,31.99,39.22,1
336949,-0.05,0.0,-1.02,2.66,-1.21,-0.03,4.22,31.99,39.22,1
336960,-0.05,0.0,-1.02,2.72,-1.39,-0.05,4.25,31.96,39.3,1
336970,-0.05,0.0,-1.02,2.69,-1.57,-0.07,4.25,31.96,39.3,1
336981,-0.05,0.0,-1.02,2.97,-1.75,-0.03,4.25,31.96,39.3,1
336992,-0.05,0.0,-1.01,3.09,-1.86,-0.06,4.25,31.96,39.3,1
337004,-0.05,0.0,-1.01,3.02,-1.91,-0.17,4.25,31.96,39.3,1
337016,-0.05,-0.0,-1.0,2.99,-1.87,-0.23,4.26,31.97,39.45,1
337028,-0.05,-0.0,-1.0,3.02,-1.67,-0.27,4.26,31.97,39.45,1
337041,-0.05,-0.0,-1.0,3.0,-1.19,-0.16,4.26,31.97,39.45,1
337052,-0.05,-0.0,-1.0,2.89,-1.01,-0.03,4.26,31.97,39.45,1
337063,-0.05,-0.0,-1.0,2.77,-0.92,0.11,4.4,31.95,39.51,1
337077,-0.05,0.0,-1.01,2.77,-0.75,0.11,4.4,31.95,39.51,1
337087,-0.05,0.0,-1.01,2.83,-0.7,0.07,4.4,31.95,39.51,1
337097,-0.05,0.0,-1.01,2.96,-0.64,0.04,4.4,31.95,39.51,1
337108,-0.05,0.0,-1.02,3.29,-0.73,-0.09,4.45,31.87,39.38,1
337120,-0.05,0.0,-1.02,3.74,-0.6,-0.0,4.45,31.87,39.38,1
337131,-0.05,0.01,-1.01,3.61,-0.62,-0.03,4.45,31.87,39.38,1
337144,-0.05,0.01,-1.02,3.27,-0.83,-0.08,4.45,31.87,39.38,1
337156,-0.05,0.01,-1.02,3.26,-0.89,-0.08,4.45,31.78,39.44,1
337166,-0.05,0.01,-1.02,3.46,-0.95,-0.1,4.45,31.78,39.44,1
337176,-0.05,0.01,-1.01,3.73,-0.97,-0.14,4.45,31.78,39.44,1
337187,-0.05,0.01,-1.01,4.39,-0.84,-0.25,4.45,31.78,39.44,1
337198,-0.05,0.01,-1.01,4.7,-0.71,-0.29,4.45,31.78,39.44,1
337209,-0.05,0.01,-1.01,4.94,-0.58,-0.29,4.47,31.75,39.24,1
337219,-0.05,0.01,-1.01,4.93,-0.49,-0.28,4.47,31.75,39.24,1
337230,-0.05,0.01,-1.0,4.13,-0.54,-0.17,4.47,31.75,39.24,1
337241,-0.05,0.01,-1.01,3.69,-0.56,-0.01,4.47,31.75,39.24,1
337253,-0.05,0.01,-1.01,3.41,-0.53,0.08,4.47,31.75,39.24,1
337265,-0.05,0.01,-1.01,3.24,-0.47,0.12,4.37,31.67,39.19,1
337276,-0.05,0.01,-1.01,3.24,-0.38,0.12,4.37,31.67,39.19,1
337286,-0.05,0.01,-1.01,3.2,-0.34,0.16,4.37,31.67,39.19,1
337296,-0.05,0.01,-1.01,3.06,-0.36,0.23,4.37,31.67,39.19,1
337309,-0.05,0.01,-1.01,2.76,-0.45,0.29,4.29,31.52,39.2,1
337319,-0.05,0.01,-1.02,2.81,-0.55,0.24,4.29,31.52,39.2,1
337329,-0.05,0.01,-1.01,2.93,-0.62,0.16,4.29,31.52,39.2,1
337339,-0.05,0.01,-1.01,3.04,-0.7,0.14,4.29,31.52,39.2,1
337349,-0.05,0.01,-1.01,3.06,-0.8,0.13,4.29,31.52,39.2,1
337362,-0.05,0.01,-1.01,2.75,-0.89,0.25,4.27,31.43,39.21,1
337372,-0.05,0.01,-1.01,2.69,-0.87,0.3,4.27,31.43,39.21,1
337382,-0.05,0.01,-1.01,2.72,-0.81,0.26,4.27,31.43,39.21,1
337392,-0.05,0.01,-1.01,2.83,-0.89,0.19,4.27,31.43,39.21,1
337404,-0.05,0.01,-1.01,2.66,-1.13,0.02,4.27,31.43,39.21,1
337415,-0.05,0.01,-1.01,2.26,-1.15,0.01,4.28,31.43,39.24,1
337425,-0.05,0.01,-1.01,1.87,-1.1,0.06,4.28,31.43,39.24,1
337435,-0.05,0.01,-1.01,1.62,-0.99,0.13,4.28,31.43,39.24,1
337447,-0.05,0.01,-1.01,2.06,-0.8,0.32,4.28,31.43,39.24,1
337458,-0.05,0.01,-1.01,2.41,-0.65,0.45,4.3,31.43,39.34,1
337468,-0.05,0.01,-1.01,2.6,-0.55,0.6,4.3,31.43,39.34,1
337478,-0.05,0.01,-1.01,2.59,-0.52,0.67,4.3,31.43,39.34,1
337490,-0.05,0.01,-1.02,2.37,-0.79,0.64,4.3,31.43,39.34,1
337500,-0.05,0.02,-1.02,2.33,-0.98,0.54,4.3,31.43,39.34,1
337511,-0.05,0.01,-1.02,2.33,-1.17,0.45,4.13,31.31,39.5,1
337522,-0.05,0.01,-1.02,2.41,-1.32,0.37,4.13,31.31,39.5,1
337533,-0.05,0.01,-1.01,2.44,-1.42,0.34,4.13,31.31,39.5,1
337543,-0.05,0.02,-1.01,2.46,-1.45,0.31,4.13,31.31,39.5,1
337555,-0.05,0.02,-1.01,2.45,-1.46,0.25,4.26,31.28,39.59,1
337566,-0.05,0.02,-1.0,2.4,-1.43,0.22,4.26,31.28,39.59,1
337578,-0.05,0.02,-1.0,2.24,-1.4,0.07,4.26,31.28,39.59,1
337590,-0.05,0.02,-1.0,1.71,-1.29,-0.09,4.26,31.28,39.59,1
337601,-0.05,0.01,-1.0,1.64,-1.18,-0.12,4.26,31.28,39.59,1
337612,-0.05,0.01,-1.0,1.67,-1.0,-0.16,4.17,31.12,39.33,1
337625,-0.05,0.01,-1.0,1.6,-0.51,-0.07,4.17,31.12,39.33,1
337636,-0.05,0.01,-1.01,1.52,-0.36,0.04,4.17,31.12,39.33,1
337648,-0.05,0.01,-1.01,1.52,-0.28,0.11,4.17,31.12,39.33,1
337661,-0.05,0.02,-1.02,2.01,-0.34,0.05,4.15,31.14,39.55,1
337672,-0.05,0.02,-1.02,2.13,-0.43,-0.11,4.15,31.14,39.55,1
337685,-0.05,0.02,-1.02,2.05,-0.47,-0.36,4.15,31.14,39.55,1
337696,-0.05,0.01,-1.02,2.01,-0.5,-0.41,4.15,31.14,39.55,1
337707,-0.05,0.01,-1.02,2.11,-0.54,-0.36,4.21,31.2,39.6,1
337719,-0.05,0.01,-1.02,2.54,-0.58,-0.3,4.21,31.2,39.6,1
337730,-0.05,0.01,-1.01,2.66,-0.68,-0.26,4.21,31.2,39.6,1
337742,-0.05,0.01,-1.01,2.61,-0.89,-0.19,4.21,31.2,39.6,1
337757,-0.05,0.01,-1.01,2.22,-1.36,0.05,4.17,31.23,39.41,1
337767,-0.05,0.01,-1.01,2.13,-1.46,0.19,4.17,31.23,39.41,1
337777,-0.05,0.01,-1.01,2.16,-1.45,0.28,4.17,31.23,39.41,1
337790,-0.05,0.01,-1.01,2.41,-1.38,0.38,4.17,31.23,39.41,1
337802,-0.05,0.01,-1.01,2.39,-1.33,0.41,4.17,31.23,39.41,1
337814,-0.05,0.01,-1.01,2.42,-1.26,0.44,4.09,31.25,39.22,1
337825,-0.05,0.02,-1.01,2.45,-1.21,0.34,4.09,31.25,39.22,1
337836,-0.05,0.02,-1.01,2.42,-1.2,0.31,4.09,31.25,39.22,1
337850,-0.05,0.02,-1.01,2.28,-1.27,0.19,4.09,31.25,39.22,1
337861,-0.05,0.02,-1.01,2.27,-1.37,0.12,4.03,31.28,39.38,1
337871,-0.05,0.02,-1.01,2.35,-1.46,0.08,4.03,31.28,39.38,1
337881,-0.05,0.02,-1.01,2.41,-1.49,0.01,4.03,31.28,39.38,1
337893,-0.05,0.02,-1.01,2.24,-1.55,-0.04,4.03,31.28,39.38,1
337903,-0.05,0.02,-1.01,2.13,-1.54,-0.09,4.03,31.28,39.38,1
337914,-0.05,0.02,-1.01,2.19,-1.43,-0.12,4.02,31.26,39.33,1
337927,-0.05,0.02,-1.01,2.53,-1.13,-0.15,4.02,31.26,39.33,1
337939,-0.05,0.02,-1.01,2.45,-1.1,-0.13,4.02,31.26,39.33,1
337951,-0.05,0.02,-1.01,1.75,-1.17,-0.08,4.02,31.26,39.33,1
337964,-0.05,0.02,-1.01,1.47,-1.25,-0.06,4.06,31.34,39.21,1
337974,-0.05,0.02,-1.01,1.28,-1.29,-0.15,4.06,31.34,39.21,1
337984,-0.05,0.02,-1.01,1.22,-1.25,-0.23,4.06,31.34,39.21,1
337996,-0.05,0.02,-1.01,1.45,-1.1,-0.13,4.06,31.34,39.21,1
338007,-0.05,0.02,-1.01,1.44,-1.12,-0.1,4.02,31.21,39.28,1
338017,-0.05,0.01,-1.01,1.34,-1.19,-0.09,4.02,31.21,39.28,1
338027,-0.05,0.01,-1.01,1.35,-1.24,-0.07,4.02,31.21,39.28,1
338039,-0.05,0.01,-1.01,1.98,-1.23,-0.01,4.02,31.21,39.28,1
338050,-0.05,0.01,-1.01,2.27,-1.19,-0.02,4.02,31.21,39.28,1
338061,-0.05,0.01,-1.01,2.33,-1.13,0.05,4.01,31.18,39.26,1
338073,-0.05,0.01,-1.01,1.78,-1.05,0.3,4.01,31.18,39.26,1
338085,-0.05,0.01,-1.01,1.56,-0.96,0.41,4.01,31.18,39.26,1
338097,-0.05,0.01,-1.01,1.89,-0.73,0.6,4.01,31.18,39.26,1
338109,-0.05,0.01,-1.01,2.23,-0.57,0.72,4.08,31.11,39.21,1
338121,-0.05,0.01,-1.01,2.5,-0.49,0.9,4.08,31.11,39.21,1
338131,-0.05,0.01,-1.01,2.5,-0.4,1.05,4.08,31.11,39.21,1
338143,-0.05,0.02,-1.01,2.42,-0.51,1.03,4.08,31.11,39.21,1
338153,-0.05,0.02,-1.01,2.35,-0.64,0.97,4.08,31.11,39.21,1
338164,-0.05,0.02,-1.02,2.21,-0.89,0.91,4.14,31.23,39.16,1
338175,-0.05,0.02,-1.02,2.11,-1.3,0.69,4.14,31.23,39.16,1
338186,-0.05,0.02,-1.01,2.25,-1.46,0.55,4.14,31.23,39.16,1
338196,-0.05,0.02,-1.01,2.41,-1.57,0.4,4.14,31.23,39.16,1
338207,-0.05,0.02,-1.01,2.46,-1.59,0.23,4.13,31.12,39.39,1
338218,-0.05,0.02,-1.01,2.28,-1.67,0.05,4.13,31.12,39.39,1
338229,-0.05,0.02,-1.01,2.32,-1.64,-0.0,4.13,31.12,39.39,1
338240,-0.05,0.02,-1.01,2.45,-1.56,0.02,4.13,31.12,39.39,1
338255,-0.05,0.02,-1.01,2.62,-1.64,-0.26,4.17,31.1,39.52,1
338267,-0.05,0.02,-1.0,2.51,-1.64,-0.38,4.17,31.1,39.52,1
338278,-0.05,0.02,-1.0,1.79,-1.53,-0.5,4.17,31.1,39.52,1
338289,-0.05,0.02,-1.0,1.51,-1.42,-0.54,4.17,31.1,39.52,1
338299,-0.05,0.02,-1.0,1.4,-1.29,-0.61,4.17,31.1,39.52,1
338310,-0.05,0.02,-1.0,1.49,-1.13,-0.68,4.31,31.08,39.46,1
338321,-0.05,0.02,-1.01,2.03,-0.67,-0.73,4.31,31.08,39.46,1
338332,-0.05,0.02,-1.01,2.24,-0.47,-0.64,4.31,31.08,39.46,1
338343,-0.05,0.02,-1.01,2.24,-0.33,-0.55,4.31,31.08,39.46,1
338356,-0.05,0.02,-1.01,1.73,-0.44,-0.63,4.29,31.03,39.47,1
338367,-0.05,0.02,-1.01,1.55,-0.68,-0.72,4.29,31.03,39.47,1
338379,-0.05,0.02,-1.02,1.52,-0.84,-0.83,4.29,31.03,39.47,1
338391,-0.05,0.02,-1.02,1.92,-0.9,-0.87,4.29,31.03,39.47,1
338403,-0.05,0.02,-1.02,2.1,-0.93,-0.77,4.34,31.09,39.3,1
338414,-0.05,0.02,-1.02,2.12,-1.05,-0.66,4.34,31.09,39.3,1
338426,-0.05,0.01,-1.02,1.84,-1.37,-0.56,4.34,31.09,39.3,1
338437,-0.05,0.01,-1.01,1.62,-1.55,-0.57,4.34,31.09,39.3,1
338451,-0.05,0.01,-1.01,1.34,-1.79,-0.67,4.34,31.09,39.3,1
338462,-0.05,0.01,-1.01,1.37,-1.79,-0.64,4.29,31.11,39.29,1
338473,-0.05,0.01,-1.0,1.47,-1.69,-0.58,4.29,31.11,39.29,1
338486,-0.05,0.01,-1.01,1.8,-1.2,-0.19,4.29,31.11,39.29,1
338497,-0.05,0.01,-1.01,2.07,-1.0,0.08,4.29,31.11,39.29,1
338510,-0.05,0.01,-1.01,2.28,-0.8,0.53,4.17,31.19,39.39,1
338520,-0.05,0.01,-1.01,2.07,-0.78,0.69,4.17,31.19,39.39,1
338531,-0.05,0.01,-1.01,1.95,-0.75,0.77,4.17,31.19,39.39,1
338541,-0.05,0.02,-1.01,2.07,-0.76,0.72,4.17,31.19,39.39,1
338551,-0.05,0.02,-1.01,2.26,-0.78,0.64,4.17,31.19,39.39,1
338564,-0.05,0.02,-1.02,2.02,-0.96,0.57,4.07,31.29,39.52,1
338575,-0.05,0.02,-1.02,1.67,-1.15,0.54,4.07,31.29,39.52,1
338589,-0.05,0.02,-1.02,1.51,-1.52,0.43,4.07,31.29,39.52,1
338599,-0.05,0.02,-1.01,1.84,-1.63,0.32,4.07,31.29,39.52,1
338610,-0.05,0.02,-1.01,2.29,-1.58,0.21,4.02,31.37,39.33,1
338620,-0.05,0.02,-1.01,2.57,-1.48,0.18,4.02,31.37,39.33,1
338632,-0.05,0.02,-1.01,2.49,-1.4,0.16,4.02,31.37,39.33,1
338642,-0.05,0.02,-1.01,2.4,-1.39,0.13,4.02,31.37,39.33,1
338652,-0.05,0.02,-1.0,2.42,-1.27,0.06,4.02,31.37,39.33,1
338663,-0.05,0.02,-1.0,2.48,-1.15,-0.04,4.09,31.34,39.52,1
338675,-0.05,0.02,-1.01,2.09,-0.98,-0.31,4.09,31.34,39.52,1
338686,-0.05,0.02,-1.01,1.78,-0.89,-0.29,4.09,31.34,39.52,1
338700,-0.05,0.02,-1.01,1.62,-0.83,-0.25,4.09,31.34,39.52,1
338711,-0.05,0.02,-1.02,1.82,-0.89,-0.29,4.09,31.21,39.38,1
338722,-0.05,0.02,-1.02,1.97,-1.0,-0.38,4.09,31.21,39.38,1
338735,-0.05,0.02,-1.01,1.79,-1.27,-0.49,4.09,31.21,39.38,1
338745,-0.05,0.02,-1.01,1.7,-1.44,-0.52,4.09,31.21,39.38,1
338756,-0.05,0.02,-1.01,1.72,-1.5,-0.51,4.02,31.28,39.38,1
338766,-0.05,0.02,-1.01,1.84,-1.54,-0.5,4.02,31.28,39.38,1
338778,-0.05,0.02,-1.01,1.93,-1.36,-0.45,4.02,31.28,39.38,1
338790,-0.05,0.02,-1.01,1.9,-1.25,-0.45,4.02,31.28,39.38,1
338804,-0.05,0.02,-1.01,1.96,-1.04,-0.41,4.08,31.19,39.36,1
338816,-0.05,0.02,-1.01,2.01,-1.0,-0.36,4.08,31.19,39.36,1
338829,-0.05,0.02,-1.01,1.96,-0.82,-0.33,4.08,31.19,39.36,1
338840,-0.05,0.02,-1.01,1.93,-0.75,-0.3,4.08,31.19,39.36,1
338851,-0.05,0.02,-1.01,1.94,-0.68,-0.3,4.08,31.19,39.36,1
338864,-0.05,0.02,-1.01,2.07,-0.67,-0.34,4.07,31.11,39.26,1
338876,-0.05,0.02,-1.01,2.21,-0.74,-0.43,4.07,31.11,39.26,1
338889,-0.05,0.02,-1.01,2.36,-0.83,-0.51,4.07,31.11,39.26,1
338901,-0.05,0.01,-1.01,2.29,-0.82,-0.48,4.07,31.11,39.26,1
338912,-0.05,0.01,-1.02,2.21,-0.83,-0.36,4.15,31.03,39.01,1
338924,-0.05,0.01,-1.02,2.26,-0.88,-0.15,4.15,31.03,39.01,1
338935,-0.05,0.01,-1.02,2.32,-1.01,-0.08,4.15,31.03,39.01,1
338949,-0.05,0.01,-1.01,2.34,-1.28,0.05,4.15,31.03,39.01,1
338960,-0.05,0.01,-1.01,2.14,-1.38,0.09,4.23,30.96,39.12,1
338972,-0.05,0.01,-1.01,1.91,-1.4,0.17,4.23,30.96,39.12,1
338984,-0.05,0.01,-1.01,1.82,-1.37,0.32,4.23,30.96,39.12,1
338995,-0.05,0.01,-1.01,2.06,-1.34,0.37,4.23,30.96,39.12,1
339008,-0.05,0.01,-1.01,2.52,-1.26,0.6,4.22,30.92,39.26,1
339019,-0.05,0.01,-1.01,2.57,-1.25,0.69,4.22,30.92,39.26,1
339029,-0.05,0.01,-1.01,2.46,-1.3,0.75,4.22,30.92,39.26,1
339039,-0.05,0.02,-1.01,2.23,-1.4,0.84,4.22,30.92,39.26,1
339049,-0.05,0.02,-1.01,2.03,-1.44,0.91,4.22,30.92,39.26,1
339062,-0.05,0.02,-1.01,1.93,-1.21,1.1,4.27,30.89,39.3,1
339072,-0.05,0.02,-1.01,2.06,-1.02,1.12,4.27,30.89,39.3,1
339082,-0.06,0.02,-1.01,2.22,-0.85,1.15,4.27,30.89,39.3,1
339092,-0.06,0.02,-1.01,2.32,-0.77,1.12,4.27,30.89,39.3,1
339105,-0.06,0.03,-1.01,2.44,-0.83,0.97,4.19,30.85,39.41,1
339115,-0.06,0.03,-1.02,2.43,-0.91,0.83,4.19,30.85,39.41,1
339126,-0.06,0.03,-1.01,2.55,-0.85,0.65,4.19,30.85,39.41,1
339138,-0.06,0.03,-1.01,2.41,-0.95,0.21,4.19,30.85,39.41,1
339150,-0.06,0.03,-1.01,2.01,-1.24,0.01,4.19,30.85,39.41,1
339161,-0.06,0.03,-1.01,1.68,-1.45,-0.18,4.21,30.9,39.48,1
339173,-0.06,0.03,-1.01,1.61,-1.6,-0.52,4.21,30.9,39.48,1
339184,-0.06,0.03,-1.01,1.82,-1.5,-0.63,4.21,30.9,39.48,1
339195,-0.06,0.03,-1.01,1.99,-1.41,-0.79,4.21,30.9,39.48,1
339208,-0.05,0.03,-1.01,1.97,-1.38,-1.01,4.18,30.95,39.4,1
339219,-0.05,0.03,-1.01,1.88,-1.35,-1.08,4.18,30.95,39.4,1
339233,-0.05,0.02,-1.01,1.9,-1.13,-1.17,4.18,30.95,39.4,1
339245,-0.05,0.02,-1.01,1.92,-1.0,-1.22,4.18,30.95,39.4,1
339258,-0.05,0.02,-1.01,1.71,-0.84,-1.22,4.23,30.93,39.5,1
339270,-0.05,0.02,-1.01,1.63,-0.8,-1.21,4.23,30.93,39.5,1
339280,-0.05,0.01,-1.01,1.53,-0.77,-1.17,4.23,30.93,39.5,1
339291,-0.05,0.01,-1.02,1.7,-0.69,-0.92,4.23,30.93,39.5,1
339303,-0.05,0.01,-1.02,1.93,-0.76,-0.77,4.09,30.95,39.52,1
339314,-0.05,0.01,-1.02,2.1,-0.9,-0.69,4.09,30.95,39.52,1
339327,-0.05,0.01,-1.01,1.84,-1.23,-0.63,4.09,30.95,39.52,1
339337,-0.05,0.01,-1.01,1.65,-1.38,-0.57,4.09,30.95,39.52,1
339348,-0.05,0.01,-1.01,1.67,-1.4,-0.46,4.09,30.95,39.52,1
339361,-0.05,0.01,-1.01,2.28,-1.23,-0.13,3.97,30.92,39.51,1
339372,-0.05,0.01,-1.01,2.63,-1.05,0.01,3.97,30.92,39.51,1
339382,-0.05,0.01,-1.01,2.86,-0.89,0.13,3.97,30.92,39.51,1
339392,-0.05,0.02,-1.01,2.89,-0.78,0.25,3.97,30.92,39.51,1
339404,-0.05,0.02,-1.01,2.85,-0.69,0.43,3.99,30.82,39.63,1
339415,-0.05,0.02,-1.01,2.99,-0.61,0.49,3.99,30.82,39.63,1
339427,-0.05,0.02,-1.01,3.14,-0.51,0.57,3.99,30.82,39.63,1
339439,-0.05,0.02,-1.01,3.39,-0.57,0.69,3.99,30.82,39.63,1
339451,-0.05,0.02,-1.01,3.4,-0.65,0.72,3.99,30.82,39.63,1
339463,-0.05,0.03,-1.01,3.1,-0.77,0.6,4.14,30.82,39.62,1
339474,-0.05,0.03,-1.01,2.79,-0.79,0.48,4.14,30.82,39.62,1
339486,-0.05,0.03,-1.01,2.47,-0.83,0.39,4.14,30.82,39.62,1
339496,-0.06,0.03,-1.01,2.21,-0.87,0.33,4.14,30.82,39.62,1
339509,-0.06,0.03,-1.01,2.2,-0.89,0.18,4.28,30.82,39.4,1
339519,-0.06,0.03,-1.01,2.36,-0.81,0.16,4.28,30.82,39.4,1
339529,-0.06,0.03,-1.01,2.5,-0.68,0.14,4.28,30.82,39.4,1
339540,-0.06,0.03,-1.01,2.59,-0.73,0.05,4.28,30.82,39.4,1
339551,-0.06,0.03,-1.01,2.41,-0.83,-0.02,4.28,30.82,39.4,1
339562,-0.06,0.03,-1.01,2.09,-0.93,-0.05,4.22,30.78,39.4,1
339574,-0.06,0.03,-1.01,1.63,-1.2,-0.18,4.22,30.78,39.4,1
339585,-0.05,0.03,-1.01,1.82,-1.26,-0.22,4.22,30.78,39.4,1
339597,-0.05,0.03,-1.01,2.16,-1.22,-0.29,4.22,30.78,39.4,1
339610,-0.05,0.03,-1.01,2.78,-1.02,-0.28,4.19,30.71,39.48,1
339622,-0.05,0.03,-1.01,2.72,-0.91,-0.3,4.19,30.71,39.48,1
339634,-0.06,0.03,-1.01,2.32,-0.81,-0.32,4.19,30.71,39.48,1
339646,-0.06,0.02,-1.01,2.18,-0.81,-0.34,4.19,30.71,39.48,1
339657,-0.06,0.02,-1.02,2.13,-0.83,-0.37,4.09,30.7,39.34,1
339670,-0.06,0.02,-1.02,2.28,-0.9,-0.47,4.09,30.7,39.34,1
339682,-0.06,0.02,-1.02,2.33,-1.0,-0.46,4.09,30.7,39.34,1
339695,-0.06,0.02,-1.02,2.26,-1.18,-0.37,4.09,30.7,39.34,1
339707,-0.06,0.02,-1.01,2.17,-1.26,-0.3,4.14,30.76,39.46,1
339718,-0.06,0.02,-1.01,2.22,-1.32,-0.28,4.14,30.76,39.46,1
339730,-0.06,0.02,-1.01,2.68,-1.27,-0.24,4.14,30.76,39.46,1
339742,-0.05,0.02,-1.01,2.96,-1.22,-0.23,4.14,30.76,39.46,1
339753,-0.05,0.02,-1.01,3.12,-1.15,-0.23,4.16,30.77,39.4,1
339765,-0.05,0.02,-1.01,2.93,-1.12,-0.27,4.16,30.77,39.4,1
339777,-0.05,0.02,-1.01,2.72,-1.13,-0.28,4.16,30.77,39.4,1
339791,-0.05,0.02,-1.01,2.34,-1.12,-0.14,4.16,30.77,39.4,1
339801,-0.05,0.02,-1.01,2.19,-1.03,-0.07,4.16,30.77,39.4,1
339812,-0.05,0.02,-1.01,2.04,-0.95,0.04,4.12,30.78,39.62,1
339825,-0.06,0.03,-1.01,1.83,-0.76,0.36,4.12,30.78,39.62,1
339837,-0.06,0.03,-1.01,1.91,-0.77,0.43,4.12,30.78,39.62,1
339849,-0.06,0.03,-1.01,2.31,-0.76,0.32,4.12,30.78,39.62,1
339861,-0.06,0.03,-1.02,2.42,-0.81,0.3,4.06,30.78,39.57,1
339873,-0.06,0.03,-1.02,2.42,-0.9,0.27,4.06,30.78,39.57,1
339884,-0.06,0.03,-1.02,2.51,-1.22,0.37,4.06,30.78,39.57,1
339895,-0.06,0.03,-1.01,2.42,-1.43,0.37,4.06,30.78,39.57,1
339906,-0.06,0.03,-1.01,2.25,-1.51,0.37,4.19,30.76,39.6,1
339919,-0.06,0.03,-1.01,1.9,-1.61,0.21,4.19,30.76,39.6,1
339931,-0.06,0.03,-1.01,1.89,-1.61,0.11,4.19,30.76,39.6,1
339944,-0.06,0.03,-1.01,2.1,-1.61,-0.19,4.19,30.76,39.6,1
339956,-0.06,0.03,-1.0,2.06,-1.5,-0.31,4.1,30.77,39.63,1
339967,-0.06,0.03,-1.0,1.91,-1.34,-0.39,4.1,30.77,39.63,1
339978,-0.06,0.03,-1.0,1.39,-1.08,-0.56,4.1,30.77,39.63,1
339989,-0.06,0.03,-1.0,1.32,-1.01,-0.59,4.1,30.77,39.63,1
340002,-0.06,0.03,-1.01,1.32,-0.94,-0.55,4.22,30.74,39.71,1
340014,-0.06,0.03,-1.01,1.49,-0.64,-0.52,4.22,30.74,39.71,1
340025,-0.06,0.03,-1.01,1.57,-0.48,-0.55,4.22,30.74,39.71,1
340036,-0.06,0.03,-1.01,1.63,-0.43,-0.56,4.22,30.74,39.71,1
340047,-0.06,0.03,-1.01,1.82,-0.63,-0.65,4.22,30.74,39.71,1
340059,-0.06,0.03,-1.02,1.77,-0.8,-0.67,4.24,30.7,39.69,1
340070,-0.05,0.03,-1.02,1.65,-0.99,-0.67,4.24,30.7,39.69,1
340083,-0.05,0.02,-1.02,1.91,-1.05,-0.55,4.24,30.7,39.69,1
340093,-0.05,0.02,-1.01,2.17,-1.1,-0.47,4.24,30.7,39.69,1
340104,-0.05,0.02,-1.01,2.33,-1.09,-0.47,4.17,30.69,39.56,1
340117,-0.05,0.02,-1.01,2.12,-1.02,-0.36,4.17,30.69,39.56,1
340129,-0.06,0.02,-1.01,1.9,-1.04,-0.3,4.17,30.69,39.56,1
340143,-0.05,0.02,-1.01,1.83,-1.19,-0.26,4.17,30.69,39.56,1
340154,-0.05,0.02,-1.01,1.98,-1.17,-0.2,4.15,30.7,39.44,1
340165,-0.05,0.02,-1.01,2.14,-1.11,-0.13,4.15,30.7,39.44,1
340178,-0.05,0.02,-1.01,2.02,-0.9,0.11,4.15,30.7,39.44,1
340188,-0.05,0.02,-1.01,1.83,-0.78,0.29,4.15,30.7,39.44,1
340198,-0.06,0.02,-1.01,1.76,-0.67,0.45,4.15,30.7,39.44,1
340210,-0.06,0.03,-1.01,2.17,-0.65,0.58,3.97,30.6,39.57,1
340221,-0.06,0.03,-1.01,2.36,-0.68,0.53,3.97,30.6,39.57,1
340232,-0.06,0.03,-1.01,2.34,-0.87,0.42,3.97,30.6,39.57,1
340246,-0.06,0.03,-1.02,1.9,-1.23,0.23,3.97,30.6,39.57,1
340257,-0.06,0.03,-1.02,1.84,-1.35,0.19,3.86,30.59,39.49,1
340268,-0.06,0.03,-1.01,2.01,-1.4,0.08,3.86,30.59,39.49,1
340280,-0.06,0.03,-1.01,2.47,-1.41,-0.14,3.86,30.59,39.49,1
340292,-0.06,0.03,-1.01,2.48,-1.36,-0.2,3.86,30.59,39.49,1
340303,-0.06,0.03,-1.01,2.31,-1.31,-0.16,3.83,30.61,39.49,1
340315,-0.06,0.03,-1.01,2.22,-1.28,0.03,3.83,30.61,39.49,1
340326,-0.06,0.03,-1.01,2.32,-1.22,-0.0,3.83,30.61,39.49,1
340339,-0.06,0.03,-1.0,2.25,-1.19,-0.01,3.83,30.61,39.49,1
340350,-0.06,0.03,-1.0,1.89,-1.09,0.01,3.83,30.61,39.49,1
340361,-0.06,0.03,-1.01,1.57,-0.96,0.06,3.75,30.62,39.45,1
340374,-0.06,0.03,-1.01,1.55,-0.75,0.12,3.75,30.62,39.45,1
340386,-0.06,0.03,-1.01,1.7,-0.73,0.12,3.75,30.62,39.45,1
340399,-0.06,0.03,-1.01,1.74,-0.88,0.13,3.75,30.62,39.45,1
340410,-0.06,0.03,-1.01,1.62,-1.05,0.09,3.91,30.62,39.43,1
340421,-0.06,0.03,-1.01,1.48,-1.14,-0.01,3.91,30.62,39.43,1
340434,-0.06,0.03,-1.01,1.19,-1.23,-0.17,3.91,30.62,39.43,1
340445,-0.06,0.03,-1.01,1.2,-1.23,-0.22,3.91,30.62,39.43,1
340456,-0.06,0.03,-1.01,1.33,-1.13,-0.25,3.91,30.63,39.41,1
340469,-0.06,0.03,-1.01,1.73,-0.98,-0.28,3.91,30.63,39.41,1
340480,-0.06,0.03,-1.01,1.77,-0.87,-0.26,3.91,30.63,39.41,1
340490,-0.06,0.03,-1.01,1.75,-0.84,-0.22,3.91,30.63,39.41,1
340500,-0.06,0.03,-1.01,1.84,-0.9,-0.24,3.91,30.63,39.41,1
340513,-0.06,0.03,-1.01,2.24,-1.05,-0.19,3.93,30.71,39.69,1
340524,-0.06,0.02,-1.01,2.41,-1.05,-0.17,3.93,30.71,39.69,1
340538,-0.05,0.02,-1.01,2.39,-1.07,-0.09,3.93,30.71,39.69,1
340549,-0.05,0.02,-1.01,2.24,-1.09,-0.04,3.93,30.71,39.69,1
340561,-0.06,0.02,-1.01,2.2,-1.13,0.01,4.03,30.66,39.51,1
340573,-0.06,0.02,-1.01,2.52,-0.98,0.15,4.03,30.66,39.51,1
340583,-0.06,0.03,-1.01,2.57,-0.87,0.25,4.03,30.66,39.51,1
340593,-0.06,0.03,-1.01,2.45,-0.79,0.33,4.03,30.66,39.51,1
340604,-0.06,0.03,-1.01,2.35,-0.71,0.39,4.01,30.57,39.33,1
340616,-0.06,0.03,-1.01,2.42,-0.6,0.43,4.01,30.57,39.33,1
340626,-0.06,0.03,-1.01,2.52,-0.56,0.39,4.01,30.57,39.33,1
340636,-0.06,0.03,-1.02,2.57,-0.68,0.34,4.01,30.57,39.33,1
340649,-0.06,0.03,-1.02,2.53,-0.98,0.18,4.01,30.57,39.33,1
340660,-0.06,0.03,-1.02,2.57,-1.09,0.12,3.97,30.55,39.59,1
340672,-0.06,0.03,-1.01,2.68,-1.21,0.06,3.97,30.55,39.59,1
340684,-0.06,0.03,-1.01,2.69,-1.29,0.02,3.97,30.55,39.59,1
340696,-0.06,0.03,-1.01,2.64,-1.33,-0.04,3.97,30.55,39.59,1
340708,-0.06,0.03,-1.01,2.48,-1.44,-0.22,3.98,30.61,39.7,1
340719,-0.06,0.03,-1.01,2.47,-1.47,-0.26,3.98,30.61,39.7,1
340730,-0.06,0.03,-1.0,2.46,-1.46,-0.29,3.98,30.61,39.7,1
340744,-0.06,0.03,-1.0,2.39,-1.24,-0.26,3.98,30.61,39.7,1
340755,-0.06,0.03,-1.0,2.41,-1.04,-0.24,4.04,30.62,39.65,1
340766,-0.06,0.03,-1.01,2.49,-0.82,-0.24,4.04,30.62,39.65,1
340778,-0.06,0.03,-1.01,2.43,-0.61,-0.19,4.04,30.62,39.65,1
340790,-0.06,0.03,-1.01,2.26,-0.63,-0.19,4.04,30.62,39.65,1
340801,-0.06,0.03,-1.01,2.08,-0.72,-0.26,4.04,30.62,39.54,1
340813,-0.06,0.03,-1.01,1.97,-0.95,-0.36,4.04,30.62,39.54,1
340825,-0.06,0.03,-1.01,2.09,-0.93,-0.4,4.04,30.62,39.54,1
340838,-0.06,0.03,-1.01,2.51,-0.89,-0.27,4.04,30.62,39.54,1
340851,-0.06,0.03,-1.01,2.52,-0.9,-0.21,4.01,30.76,39.48,1
340865,-0.06,0.03,-1.01,2.43,-1.0,-0.15,4.01,30.76,39.48,1
340876,-0.06,0.03,-1.01,2.43,-0.99,-0.15,4.01,30.76,39.48,1
340887,-0.06,0.03,-1.01,2.49,-1.0,-0.11,4.01,30.76,39.48,1
340899,-0.06,0.03,-1.01,2.59,-0.9,-0.13,4.01,30.76,39.48,1
340910,-0.06,0.03,-1.01,2.54,-0.87,-0.2,4.04,30.81,39.54,1
340922,-0.06,0.03,-1.01,2.2,-0.92,-0.26,4.04,30.81,39.54,1
340933,-0.06,0.03,-1.01,2.0,-0.99,-0.2,4.04,30.81,39.54,1
340945,-0.06,0.03,-1.01,1.81,-0.97,-0.13,4.04,30.81,39.54,1
340957,-0.06,0.03,-1.01,1.72,-0.86,0.07,3.9,30.73,39.71,1
340968,-0.06,0.03,-1.01,1.84,-0.82,0.1,3.9,30.73,39.71,1
340980,-0.06,0.03,-1.01,1.97,-0.76,0.06,3.9,30.73,39.71,1
340993,-0.06,0.03,-1.01,2.26,-1.01,-0.03,3.9,30.73,39.71,1
341004,-0.06,0.03,-1.01,2.42,-1.13,-0.02,3.98,30.69,39.6,1
341017,-0.06,0.03,-1.01,2.33,-0.91,0.05,3.98,30.69,39.6,1
341028,-0.06,0.03,-1.01,2.34,-0.83,-0.07,3.98,30.69,39.6,1
341040,-0.06,0.03,-1.01,2.36,-0.79,-0.15,3.98,30.69,39.6,1
341051,-0.06,0.03,-1.01,2.33,-0.79,-0.16,3.91,30.62,39.75,1
341062,-0.06,0.03,-1.01,2.26,-0.82,-0.12,3.91,30.62,39.75,1
341073,-0.06,0.03,-1.01,2.16,-0.8,-0.12,3.91,30.62,39.75,1
341084,-0.06,0.03,-1.01,2.1,-0.83,-0.15,3.91,30.62,39.75,1
341096,-0.06,0.03,-1.01,2.22,-0.79,-0.12,3.91,30.62,39.75,1
341107,-0.06,0.03,-1.01,2.29,-0.76,-0.07,3.91,30.51,39.68,1
341117,-0.06,0.03,-1.01,2.37,-0.73,0.0,3.91,30.51,39.68,1
341127,-0.06,0.03,-1.01,2.46,-0.66,0.03,3.91,30.51,39.68,1
341139,-0.06,0.03,-1.01,3.05,-0.49,-0.01,3.91,30.51,39.68,1
341149,-0.06,0.03,-1.01,3.2,-0.44,0.03,3.91,30.51,39.68,1
341160,-0.06,0.03,-1.01,3.26,-0.42,0.11,3.84,30.35,39.57,1
341170,-0.06,0.03,-1.01,3.29,-0.42,0.16,3.84,30.35,39.57,1
341182,-0.06,0.04,-1.01,3.28,-0.32,0.17,3.84,30.35,39.57,1
341193,-0.06,0.04,-1.01,3.24,-0.34,0.16,3.84,30.35,39.57,1
341204,-0.06,0.04,-1.01,3.19,-0.38,0.13,3.79,30.47,39.64,1
341216,-0.06,0.04,-1.01,2.85,-0.5,0.11,3.79,30.47,39.64,1
341228,-0.06,0.04,-1.01,2.71,-0.66,0.09,3.79,30.47,39.64,1
341240,-0.06,0.04,-1.01,2.45,-0.96,0.01,3.79,30.47,39.64,1
341252,-0.06,0.04,-1.01,2.25,-1.03,-0.06,3.75,30.56,39.78,1
341264,-0.06,0.04,-1.01,2.06,-1.05,-0.09,3.75,30.56,39.78,1
341275,-0.06,0.04,-1.01,2.03,-0.85,-0.09,3.75,30.56,39.78,1
341286,-0.06,0.04,-1.01,2.21,-0.68,-0.04,3.75,30.56,39.78,1
341298,-0.06,0.04,-1.01,2.4,-0.53,-0.06,3.75,30.56,39.78,1
341311,-0.07,0.04,-1.01,2.15,-0.36,0.04,3.71,30.61,39.46,1
341322,-0.07,0.04,-1.01,1.85,-0.37,0.13,3.71,30.61,39.46,1
341333,-0.07,0.04,-1.01,1.66,-0.36,0.15,3.71,30.61,39.46,1
341344,-0.07,0.04,-1.02,1.84,-0.51,-0.05,3.71,30.61,39.46,1
341356,-0.07,0.04,-1.01,2.05,-0.54,-0.2,3.65,30.66,39.51,1
341367,-0.07,0.04,-1.01,2.03,-0.59,-0.33,3.65,30.66,39.51,1
341379,-0.07,0.04,-1.02,1.48,-0.81,-0.43,3.65,30.66,39.51,1
341391,-0.07,0.04,-1.02,1.34,-0.97,-0.47,3.65,30.66,39.51,1
341402,-0.06,0.04,-1.02,1.35,-1.13,-0.53,3.7,30.61,39.76,1
341414,-0.06,0.04,-1.01,1.58,-1.43,-0.56,3.7,30.61,39.76,1
341426,-0.06,0.04,-1.01,1.58,-1.52,-0.55,3.7,30.61,39.76,1
341440,-0.06,0.04,-1.01,1.62,-1.59,-0.46,3.7,30.61,39.76,1
341451,-0.06,0.03,-1.01,1.7,-1.59,-0.46,3.66,30.6,39.58,1
341463,-0.06,0.03,-1.01,1.78,-1.35,-0.39,3.66,30.6,39.58,1
341475,-0.06,0.03,-1.01,1.62,-1.23,-0.25,3.66,30.6,39.58,1
341486,-0.06,0.03,-1.01,1.48,-1.16,-0.02,3.66,30.6,39.58,1
341501,-0.07,0.03,-1.01,1.88,-0.93,0.27,3.78,30.47,39.52,1
341513,-0.06,0.04,-1.01,2.28,-0.86,0.25,3.78,30.47,39.52,1
341524,-0.06,0.04,-1.01,2.38,-0.8,0.11,3.78,30.47,39.52,1
341535,-0.06,0.04,-1.01,2.03,-0.93,0.11,3.78,30.47,39.52,1
341545,-0.06,0.04,-1.01,1.62,-1.14,0.13,3.78,30.47,39.52,1
341556,-0.06,0.04,-1.01,1.38,-1.34,0.08,3.84,30.49,39.49,1
341567,-0.06,0.04,-1.01,1.56,-1.48,-0.05,3.84,30.49,39.49,1
341578,-0.06,0.04,-1.01,1.7,-1.46,-0.05,3.84,30.49,39.49,1
341588,-0.06,0.04,-1.01,1.72,-1.41,-0.03,3.84,30.49,39.49,1
341598,-0.06,0.04,-1.01,1.58,-1.41,-0.03,3.84,30.49,39.49,1
341610,-0.06,0.04,-1.01,1.38,-1.44,0.03,3.75,30.53,39.54,1
341621,-0.06,0.04,-1.01,1.51,-1.41,0.08,3.75,30.53,39.54,1
341632,-0.06,0.04,-1.01,1.71,-1.34,0.07,3.75,30.53,39.54,1
341646,-0.06,0.04,-1.01,2.28,-1.05,0.14,3.75,30.53,39.54,1
341657,-0.06,0.04,-1.01,2.42,-0.95,0.17,3.68,30.51,39.48,1
341670,-0.06,0.04,-1.01,2.33,-1.09,0.13,3.68,30.51,39.48,1
341681,-0.06,0.04,-1.01,2.19,-1.27,0.1,3.68,30.51,39.48,1
341692,-0.06,0.04,-1.01,2.14,-1.39,0.08,3.68,30.51,39.48,1
341704,-0.06,0.04,-1.01,2.21,-1.51,-0.01,3.78,30.58,39.51,1
341715,-0.06,0.04,-1.01,2.33,-1.42,-0.01,3.78,30.58,39.51,1
341727,-0.06,0.03,-1.01,2.49,-1.24,0.01,3.78,30.58,39.51,1
341740,-0.06,0.04,-1.01,2.78,-0.93,0.17,3.78,30.58,39.51,1
341752,-0.06,0.04,-1.01,2.79,-0.9,0.22,3.82,30.63,39.24,1
341762,-0.06,0.04,-1.01,2.75,-0.88,0.28,3.82,30.63,39.24,1
341773,-0.06,0.04,-1.01,2.71,-0.85,0.27,3.82,30.63,39.24,1
341784,-0.06,0.04,-1.01,2.63,-0.88,0.32,3.82,30.63,39.24,1
341795,-0.06,0.04,-1.01,2.44,-0.9,0.36,3.82,30.63,39.24,1
341807,-0.06,0.04,-1.01,2.23,-0.96,0.4,3.87,30.43,39.27,1
341818,-0.07,0.04,-1.01,2.26,-0.9,0.35,3.87,30.43,39.27,1
341830,-0.07,0.04,-1.01,2.37,-0.85,0.31,3.87,30.43,39.27,1
341843,-0.07,0.04,-1.01,2.53,-0.91,0.3,3.87,30.43,39.27,1
341854,-0.07,0.04,-1.01,2.6,-0.98,0.29,3.88,30.35,39.37,1
341866,-0.07,0.04,-1.01,2.67,-1.07,0.27,3.88,30.35,39.37,1
341878,-0.07,0.04,-1.01,2.81,-1.13,0.18,3.88,30.35,39.37,1
341889,-0.06,0.04,-1.01,2.73,-1.25,0.18,3.88,30.35,39.37,1
341900,-0.06,0.04,-1.01,2.54,-1.4,0.18,3.83,30.34,39.41,1
341912,-0.06,0.04,-1.01,1.95,-1.48,0.24,3.83,30.34,39.41,1
341924,-0.06,0.04,-1.01,1.78,-1.41,0.27,3.83,30.34,39.41,1
341937,-0.06,0.04,-1.0,1.85,-1.21,0.36,3.83,30.34,39.41,1
341950,-0.06,0.04,-1.0,1.87,-1.11,0.36,3.85,30.19,39.55,1
341963,-0.06,0.04,-1.01,1.65,-1.06,0.31,3.85,30.19,39.55,1
341975,-0.06,0.04,-1.01,1.49,-1.04,0.23,3.85,30.19,39.55,1
341988,-0.06,0.04,-1.01,1.83,-0.96,0.24,3.85,30.19,39.55,1
341998,-0.06,0.04,-1.01,2.08,-0.92,0.24,3.85,30.19,39.55,1
342009,-0.06,0.04,-1.01,2.15,-0.89,0.24,3.94,30.21,39.44,1
342022,-0.06,0.04,-1.01,1.78,-0.86,0.24,3.94,30.21,39.44,1
342033,-0.07,0.05,-1.01,1.58,-0.95,0.24,3.94,30.21,39.44,1
342044,-0.07,0.05,-1.01,1.65,-0.98,0.23,3.94,30.21,39.44,1
342056,-0.07,0.05,-1.01,2.26,-0.92,0.07,3.92,30.21,39.59,1
342067,-0.07,0.05,-1.01,2.4,-0.89,-0.09,3.92,30.21,39.59,1
342079,-0.07,0.05,-1.01,2.24,-0.95,-0.29,3.92,30.21,39.59,1
342092,-0.07,0.05,-1.01,1.52,-1.35,-0.49,3.92,30.21,39.59,1
342103,-0.07,0.05,-1.01,1.28,-1.57,-0.57,3.91,30.18,39.66,1
342115,-0.07,0.04,-1.01,1.19,-1.73,-0.66,3.91,30.18,39.66,1
342127,-0.06,0.04,-1.01,1.07,-1.72,-0.8,3.91,30.18,39.66,1
342139,-0.06,0.04,-1.0,0.99,-1.66,-0.79,3.91,30.18,39.66,1
342150,-0.06,0.04,-1.0,0.96,-1.57,-0.75,3.84,30.16,39.77,1
342161,-0.06,0.04,-1.01,1.17,-1.44,-0.69,3.84,30.16,39.77,1
342173,-0.06,0.03,-1.01,1.56,-1.23,-0.63,3.84,30.16,39.77,1
342186,-0.06,0.03,-1.01,1.83,-0.88,-0.44,3.84,30.16,39.77,1
342198,-0.06,0.03,-1.01,1.7,-0.78,-0.29,3.84,30.16,39.77,1
342209,-0.06,0.03,-1.01,1.55,-0.77,-0.16,3.79,30.06,39.8,1
342221,-0.06,0.03,-1.02,1.67,-0.84,-0.06,3.79,30.06,39.8,1
342232,-0.06,0.04,-1.02,1.92,-0.91,-0.05,3.79,30.06,39.8,1
342242,-0.06,0.04,-1.02,2.17,-1.03,-0.05,3.79,30.06,39.8,1
342254,-0.06,0.04,-1.02,2.06,-1.38,-0.05,3.81,30.09,39.71,1
342265,-0.06,0.04,-1.01,1.72,-1.53,-0.03,3.81,30.09,39.71,1
342277,-0.06,0.04,-1.01,1.51,-1.62,-0.02,3.81,30.09,39.71,1
342287,-0.06,0.04,-1.01,1.51,-1.68,0.02,3.81,30.09,39.71,1
342300,-0.06,0.04,-1.01,1.9,-1.55,0.15,3.73,30.09,39.68,1
342311,-0.06,0.04,-1.01,2.13,-1.37,0.25,3.73,30.09,39.68,1
342322,-0.06,0.04,-1.01,2.26,-1.05,0.44,3.73,30.09,39.68,1
342333,-0.06,0.04,-1.01,2.2,-0.99,0.46,3.73,30.09,39.68,1
342345,-0.06,0.04,-1.01,2.09,-1.02,0.48,3.73,30.09,39.68,1
342358,-0.06,0.04,-1.01,1.89,-1.08,0.49,3.79,30.12,39.68,1
342370,-0.06,0.04,-1.01,1.88,-1.06,0.41,3.79,30.12,39.68,1
342383,-0.07,0.04,-1.01,1.98,-0.99,0.2,3.79,30.12,39.68,1
342394,-0.07,0.04,-1.01,1.99,-1.0,0.1,3.79,30.12,39.68,1
342405,-0.07,0.04,-1.01,1.95,-1.04,0.05,3.79,30.14,39.63,1
342415,-0.07,0.04,-1.01,1.94,-1.05,0.05,3.79,30.14,39.63,1
342426,-0.07,0.04,-1.01,2.11,-1.17,0.02,3.79,30.14,39.63,1
342437,-0.07,0.04,-1.01,2.24,-1.29,-0.03,3.79,30.14,39.63,1
342450,-0.07,0.04,-1.01,2.37,-1.35,-0.1,3.83,30.11,39.35,1
342462,-0.07,0.04,-1.01,2.4,-1.37,-0.16,3.83,30.11,39.35,1
342472,-0.06,0.04,-1.0,2.22,-1.33,-0.2,3.83,30.11,39.35,1
342483,-0.06,0.04,-1.01,1.98,-1.29,-0.2,3.83,30.11,39.35,1
342496,-0.07,0.04,-1.01,1.85,-1.02,-0.12,3.83,30.11,39.35,1
342507,-0.07,0.04,-1.01,2.0,-0.86,-0.08,3.89,30.13,39.38,1
342518,-0.07,0.04,-1.01,2.14,-0.79,-0.05,3.89,30.13,39.38,1
342530,-0.07,0.04,-1.01,1.93,-0.87,0.06,3.89,30.13,39.38,1
342542,-0.07,0.04,-1.02,1.76,-0.95,0.12,3.89,30.13,39.38,1
342553,-0.07,0.04,-1.02,1.71,-1.0,0.16,3.85,30.18,39.51,1
342565,-0.07,0.04,-1.02,2.24,-1.11,0.02,3.85,30.18,39.51,1
342577,-0.07,0.04,-1.02,2.8,-1.14,-0.21,3.85,30.18,39.51,1
342587,-0.06,0.04,-1.01,3.09,-1.26,-0.37,3.85,30.18,39.51,1
342600,-0.06,0.04,-1.01,2.98,-1.55,-0.29,3.81,30.15,39.17,1
342611,-0.06,0.04,-1.01,2.94,-1.67,-0.21,3.81,30.15,39.17,1
342625,-0.06,0.04,-1.0,2.99,-1.59,-0.1,3.81,30.15,39.17,1
342637,-0.06,0.04,-1.0,2.95,-1.54,-0.03,3.81,30.15,39.17,1
342651,-0.06,0.04,-1.0,2.47,-1.26,0.17,3.81,30.1,39.41,1
342663,-0.06,0.04,-1.0,2.22,-1.06,0.35,3.81,30.1,39.41,1
342676,-0.07,0.04,-1.01,2.37,-0.49,0.52,3.81,30.1,39.41,1
342688,-0.07,0.04,-1.01,2.67,-0.27,0.57,3.81,30.1,39.41,1
342699,-0.07,0.05,-1.01,2.81,-0.24,0.56,3.87,30.17,39.61,1
342711,-0.07,0.05,-1.01,2.5,-0.4,0.57,3.87,30.17,39.61,1
342722,-0.07,0.05,-1.02,2.38,-0.53,0.51,3.87,30.17,39.61,1
342736,-0.07,0.05,-1.02,2.52,-0.84,0.23,3.87,30.17,39.61,1
342747,-0.07,0.05,-1.02,2.47,-0.96,0.06,3.87,30.17,39.61,1
342758,-0.07,0.05,-1.02,2.37,-1.07,-0.07,3.79,30.08,39.5,1
342770,-0.07,0.05,-1.02,2.16,-1.24,-0.25,3.79,30.08,39.5,1
342782,-0.07,0.05,-1.01,2.09,-1.41,-0.32,3.79,30.08,39.5,1
342795,-0.07,0.05,-1.01,2.14,-1.66,-0.42,3.79,30.08,39.5,1
342807,-0.07,0.05,-1.0,2.15,-1.68,-0.5,3.53,30.15,39.55,1
342818,-0.06,0.04,-1.0,2.09,-1.58,-0.57,3.53,30.15,39.55,1
342829,-0.06,0.04,-1.0,1.98,-1.18,-0.53,3.53,30.15,39.55,1
342840,-0.06,0.04,-1.0,1.94,-1.0,-0.5,3.53,30.15,39.55,1
342851,-0.06,0.04,-1.0,1.88,-0.82,-0.47,3.53,30.18,39.34,1
342862,-0.06,0.04,-1.0,1.72,-0.68,-0.43,3.53,30.18,39.34,1
342874,-0.07,0.04,-1.01,1.16,-0.49,-0.19,3.53,30.18,39.34,1
342886,-0.07,0.04,-1.01,1.04,-0.45,0.0,3.53,30.18,39.34,1
342896,-0.07,0.04,-1.01,1.05,-0.45,0.12,3.53,30.18,39.34,1
342909,-0.07,0.04,-1.02,1.41,-0.6,0.07,3.41,30.21,39.07,1
342919,-0.07,0.04,-1.02,1.43,-0.7,0.01,3.41,30.21,39.07,1
342929,-0.07,0.04,-1.02,1.39,-0.84,-0.0,3.41,30.21,39.07,1
342942,-0.07,0.04,-1.02,1.43,-1.13,-0.07,3.41,30.21,39.07,1
342953,-0.07,0.04,-1.01,1.49,-1.3,-0.13,3.52,30.11,39.18,1
342965,-0.07,0.04,-1.01,1.53,-1.42,-0.22,3.52,30.11,39.18,1
342977,-0.07,0.04,-1.01,1.52,-1.42,-0.19,3.52,30.11,39.18,1
342989,-0.07,0.04,-1.01,1.6,-1.39,-0.1,3.52,30.11,39.18,1
343000,-0.07,0.04,-1.01,1.7,-1.27,-0.01,3.51,30.17,39.14,1
343011,-0.07,0.04,-1.01,1.84,-1.15,0.08,3.51,30.17,39.14,1
343022,-0.07,0.04,-1.01,2.04,-1.06,0.17,3.51,30.17,39.14,1
343034,-0.06,0.04,-1.01,2.09,-1.01,0.17,3.51,30.17,39.14,1
343046,-0.06,0.04,-1.01,2.01,-1.09,0.16,3.51,30.17,39.14,1
343057,-0.06,0.04,-1.01,1.91,-1.11,0.13,3.59,30.12,39.25,1
343071,-0.06,0.04,-1.01,1.61,-1.14,0.04,3.59,30.12,39.25,1
343082,-0.07,0.04,-1.01,1.43,-1.25,0.03,3.59,30.12,39.25,1
343094,-0.07,0.04,-1.01,1.31,-1.33,-0.02,3.59,30.12,39.25,1
343107,-0.07,0.04,-1.01,1.53,-1.3,0.04,3.59,30.08,39.48,1
343119,-0.07,0.04,-1.01,1.75,-1.2,0.04,3.59,30.08,39.48,1
343130,-0.07,0.04,-1.01,1.91,-1.06,-0.02,3.59,30.08,39.48,1
343141,-0.07,0.04,-1.01,1.87,-1.0,-0.03,3.59,30.08,39.48,1
343152,-0.07,0.04,-1.01,1.8,-0.93,0.03,3.62,30.19,39.53,1
343165,-0.07,0.04,-1.01,1.79,-0.82,-0.02,3.62,30.19,39.53,1
343176,-0.07,0.04,-1.01,1.91,-0.88,-0.11,3.62,30.19,39.53,1
343187,-0.07,0.04,-1.01,1.95,-0.93,-0.18,3.62,30.19,39.53,1
343199,-0.07,0.04,-1.01,1.83,-1.02,-0.15,3.65,30.19,39.5,1
343210,-0.07,0.04,-1.01,1.83,-1.04,-0.11,3.65,30.19,39.5,1
343220,-0.07,0.04,-1.01,1.88,-1.02,-0.11,3.65,30.19,39.5,1
343231,-0.07,0.04,-1.01,2.03,-1.0,-0.17,3.65,30.19,39.5,1
343243,-0.07,0.04,-1.01,2.22,-1.01,-0.23,3.65,30.19,39.5,1
343254,-0.07,0.04,-1.01,2.17,-1.05,-0.22,3.57,30.26,39.58,1
343267,-0.07,0.04,-1.01,2.08,-1.23,-0.27,3.57,30.26,39.58,1
343278,-0.07,0.04,-1.01,2.0,-1.27,-0.3,3.57,30.26,39.58,1
343290,-0.07,0.04,-1.01,1.88,-1.24,-0.33,3.57,30.26,39.58,1
343302,-0.07,0.04,-1.01,1.31,-1.29,-0.35,3.42,30.35,39.54,1
343313,-0.07,0.04,-1.01,0.97,-1.33,-0.36,3.42,30.35,39.54,1
343323,-0.07,0.05,-1.01,0.77,-1.33,-0.46,3.42,30.35,39.54,1
343334,-0.07,0.05,-1.01,0.86,-1.37,-0.51,3.42,30.35,39.54,1
343347,-0.07,0.05,-1.01,1.34,-1.32,-0.71,3.42,30.35,39.54,1
343358,-0.07,0.04,-1.01,1.72,-1.29,-0.7,3.39,30.44,39.42,1
343371,-0.07,0.05,-1.01,2.31,-1.16,-0.64,3.39,30.44,39.42,1
343382,-0.07,0.05,-1.01,2.23,-1.15,-0.64,3.39,30.44,39.42,1
343393,-0.07,0.05,-1.01,1.98,-1.12,-0.64,3.39,30.44,39.42,1
343406,-0.07,0.04,-1.01,2.14,-0.9,-0.67,3.28,30.37,39.2,1
343418,-0.07,0.04,-1.01,2.41,-0.74,-0.65,3.28,30.37,39.2,1
343430,-0.07,0.04,-1.01,2.5,-0.66,-0.61,3.28,30.37,39.2,1
343441,-0.07,0.04,-1.01,2.31,-0.65,-0.57,3.28,30.37,39.2,1
343452,-0.07,0.04,-1.01,2.19,-0.6,-0.56,3.34,30.33,39.2,1
343466,-0.07,0.04,-1.01,2.19,-0.67,-0.63,3.34,30.33,39.2,1
343478,-0.07,0.04,-1.01,2.27,-0.8,-0.68,3.34,30.33,39.2,1
343490,-0.07,0.04,-1.01,2.29,-1.2,-0.83,3.34,30.33,39.2,1
343502,-0.07,0.04,-1.01,2.15,-1.35,-0.89,3.31,30.34,39.16,1
343514,-0.07,0.04,-1.01,1.94,-1.46,-0.89,3.31,30.34,39.16,1
343526,-0.07,0.04,-1.01,1.92,-1.34,-0.7,3.31,30.34,39.16,1
343538,-0.07,0.04,-1.01,2.12,-1.17,-0.5,3.31,30.34,39.16,1
343549,-0.07,0.04,-1.01,2.4,-0.92,-0.31,3.26,30.48,39.21,1
343561,-0.07,0.04,-1.01,2.84,-0.52,-0.1,3.26,30.48,39.21,1
343572,-0.07,0.04,-1.01,2.74,-0.5,-0.1,3.26,30.48,39.21,1
343583,-0.07,0.04,-1.01,2.65,-0.59,-0.13,3.26,30.48,39.21,1
343595,-0.07,0.04,-1.01,2.87,-0.67,-0.35,3.26,30.48,39.21,1
343606,-0.07,0.05,-1.01,3.17,-0.6,-0.39,3.2,30.53,38.89,1
343618,-0.07,0.05,-1.01,3.76,-0.48,-0.48,3.2,30.53,38.89,1
343630,-0.07,0.05,-1.01,5.17,-0.12,-0.62,3.2,30.53,38.89,1
343641,-0.07,0.05,-1.01,5.78,-0.07,-0.62,3.2,30.53,38.89,1
343653,-0.07,0.05,-1.01,6.29,-0.02,-0.61,3.24,30.5,38.76,1
343664,-0.07,0.05,-1.01,6.03,-0.02,-0.57,3.24,30.5,38.76,1
343676,-0.07,0.05,-1.01,5.62,-0.01,-0.54,3.24,30.5,38.76,1
343689,-0.07,0.05,-1.01,4.93,-0.17,-0.43,3.24,30.5,38.76,1
343700,-0.07,0.05,-1.01,4.69,-0.24,-0.38,3.2,30.41,38.78,1
343711,-0.07,0.05,-1.01,4.37,-0.28,-0.32,3.2,30.41,38.78,1
343721,-0.07,0.05,-1.01,3.89,-0.37,-0.32,3.2,30.41,38.78,1
343733,-0.07,0.05,-1.01,2.63,-0.71,-0.29,3.2,30.41,38.78,1
343744,-0.07,0.05,-1.01,2.16,-0.93,-0.3,3.2,30.41,38.78,1
343755,-0.07,0.05,-1.01,1.91,-1.09,-0.24,3.23,30.31,38.97,1
343767,-0.07,0.05,-1.01,1.88,-1.21,-0.2,3.23,30.31,38.97,1
343779,-0.07,0.05,-1.01,1.87,-1.24,-0.11,3.23,30.31,38.97,1
343792,-0.07,0.05,-1.01,1.77,-1.34,0.06,3.23,30.31,38.97,1
343803,-0.07,0.05,-1.01,1.87,-1.33,0.1,3.16,30.22,39.28,1
343815,-0.07,0.05,-1.01,2.0,-1.25,0.12,3.16,30.22,39.28,1
343827,-0.07,0.05,-1.01,2.03,-1.02,0.12,3.16,30.22,39.28,1
343838,-0.07,0.05,-1.01,1.98,-0.99,0.19,3.16,30.22,39.28,1
343849,-0.07,0.05,-1.01,2.0,-0.98,0.27,3.13,30.15,39.1,1
343861,-0.07,0.05,-1.01,2.35,-0.99,0.35,3.13,30.15,39.1,1
343873,-0.07,0.05,-1.01,2.61,-0.94,0.3,3.13,30.15,39.1,1
343885,-0.07,0.05,-1.01,2.28,-1.12,0.22,3.13,30.15,39.1,1
343896,-0.07,0.06,-1.01,1.75,-1.31,0.21,3.13,30.15,39.1,1
343907,-0.07,0.06,-1.01,1.27,-1.48,0.2,3.11,30.12,39.36,1
343920,-0.07,0.06,-1.01,0.72,-1.72,0.06,3.11,30.12,39.36,1
343931,-0.07,0.05,-1.01,0.76,-1.73,0.05,3.11,30.12,39.36,1
343943,-0.07,0.05,-1.01,1.11,-1.6,0.09,3.11,30.12,39.36,1
343956,-0.07,0.06,-1.01,1.94,-1.3,0.22,3.03,30.19,39.34,1
343966,-0.07,0.06,-1.01,2.08,-1.27,0.23,3.03,30.19,39.34,1
343977,-0.07,0.06,-1.01,2.08,-1.29,0.18,3.03,30.19,39.34,1
343988,-0.07,0.06,-1.01,2.06,-1.33,0.14,3.03,30.19,39.34,1
344000,-0.07,0.06,-1.01,1.96,-1.39,0.1,3.07,30.22,39.28,1
344012,-0.07,0.05,-1.01,1.75,-1.45,0.01,3.07,30.22,39.28,1
344023,-0.07,0.05,-1.01,1.69,-1.37,-0.05,3.07,30.22,39.28,1
344034,-0.07,0.05,-1.0,1.76,-1.35,-0.04,3.07,30.22,39.28,1
344046,-0.07,0.05,-1.0,1.64,-1.29,-0.05,3.07,30.22,39.28,1
344059,-0.07,0.05,-1.01,0.68,-1.36,-0.03,3.08,30.12,39.34,1
344069,-0.07,0.05,-1.01,0.53,-1.33,0.05,3.08,30.12,39.34,1
344079,-0.07,0.05,-1.01,1.07,-1.2,0.18,3.08,30.12,39.34,1
344089,-0.07,0.05,-1.01,1.98,-1.03,0.25,3.08,30.12,39.34,1
344102,-0.07,0.05,-1.01,2.68,-0.93,0.23,3.16,30.09,39.59,1
344113,-0.07,0.05,-1.01,2.11,-1.13,0.19,3.16,30.09,39.59,1
344124,-0.07,0.05,-1.01,1.34,-1.35,0.18,3.16,30.09,39.59,1
344136,-0.07,0.05,-1.02,1.27,-1.6,0.33,3.16,30.09,39.59,1
344147,-0.07,0.05,-1.01,2.05,-1.53,0.38,3.32,30.05,39.89,1
344159,-0.07,0.05,-1.01,2.69,-1.45,0.31,3.32,30.05,39.89,1
344171,-0.07,0.05,-1.0,2.1,-1.5,0.18,3.32,30.05,39.89,1
344182,-0.07,0.05,-1.0,1.33,-1.65,0.18,3.32,30.05,39.89,1
344196,-0.07,0.05,-1.01,1.12,-1.68,0.25,3.32,30.05,39.89,1
344207,-0.07,0.05,-1.0,1.87,-1.46,0.22,3.39,29.98,39.88,1
344218,-0.07,0.05,-1.0,2.48,-1.18,0.15,3.39,29.98,39.88,1
344230,-0.07,0.05,-1.0,2.09,-0.88,0.17,3.39,29.98,39.88,1
344242,-0.07,0.05,-1.01,1.62,-0.89,0.31,3.39,29.98,39.88,1
344253,-0.07,0.06,-1.01,1.46,-0.92,0.41,3.4,29.91,39.87,1
344265,-0.07,0.06,-1.01,2.04,-0.85,0.19,3.4,29.91,39.87,1
344276,-0.07,0.06,-1.01,2.21,-0.83,0.03,3.4,29.91,39.87,1
344289,-0.07,0.06,-1.01,1.61,-0.89,-0.04,3.4,29.91,39.87,1
344301,-0.07,0.06,-1.01,1.24,-1.02,-0.01,3.45,29.98,39.83,1
344313,-0.07,0.06,-1.01,1.2,-1.13,-0.08,3.45,29.98,39.83,1
344324,-0.07,0.06,-1.01,1.75,-1.08,-0.32,3.45,29.98,39.83,1
344335,-0.07,0.06,-1.01,2.01,-1.06,-0.39,3.45,29.98,39.83,1
344345,-0.07,0.06,-1.01,2.13,-1.05,-0.39,3.45,29.98,39.83,1
344356,-0.07,0.06,-1.01,2.23,-1.05,-0.39,3.46,30.0,39.98,1
344368,-0.07,0.05,-1.01,2.37,-1.06,-0.49,3.46,30.0,39.98,1
344379,-0.07,0.05,-1.0,2.26,-1.08,-0.48,3.46,30.0,39.98,1
344392,-0.07,0.05,-1.0,1.51,-1.08,-0.23,3.46,30.0,39.98,1
344404,-0.07,0.05,-1.01,1.22,-1.05,-0.05,3.43,29.99,39.76,1
344416,-0.07,0.05,-1.01,1.23,-1.04,0.07,3.43,29.99,39.76,1
344428,-0.07,0.05,-1.01,1.86,-1.09,0.05,3.43,29.99,39.76,1
344439,-0.07,0.05,-1.01,2.15,-1.12,0.01,3.43,29.99,39.76,1
344450,-0.07,0.05,-1.01,2.19,-1.1,-0.06,3.36,29.92,39.76,1
344462,-0.07,0.05,-1.01,1.69,-1.16,-0.0,3.36,29.92,39.76,1
344474,-0.07,0.05,-1.01,1.64,-1.11,0.07,3.36,29.92,39.76,1
344486,-0.07,0.05,-1.01,2.29,-0.91,0.22,3.36,29.92,39.76,1
344498,-0.07,0.05,-1.01,2.57,-0.79,0.24,3.31,29.97,39.93,1
344510,-0.07,0.05,-1.01,2.57,-0.67,0.24,3.31,29.97,39.93,1
344521,-0.07,0.05,-1.01,1.97,-0.72,0.21,3.31,29.97,39.93,1
344532,-0.07,0.06,-1.01,1.8,-0.82,0.22,3.31,29.97,39.93,1
344543,-0.07,0.06,-1.01,1.92,-0.85,0.17,3.31,29.97,39.93,1
344555,-0.07,0.06,-1.01,2.32,-0.95,0.03,3.13,29.99,39.87,1
344566,-0.07,0.06,-1.01,2.36,-0.92,-0.03,3.13,29.99,39.87,1
344578,-0.07,0.06,-1.01,2.18,-0.93,-0.08,3.13,29.99,39.87,1
344592,-0.07,0.06,-1.01,1.48,-1.04,-0.12,3.13,29.99,39.87,1
344603,-0.07,0.06,-1.01,1.19,-1.1,-0.17,3.11,29.93,39.76,1
344615,-0.07,0.06,-1.01,1.01,-1.19,-0.29,3.11,29.93,39.76,1
344626,-0.07,0.06,-1.01,1.17,-1.2,-0.32,3.11,29.93,39.76,1
344638,-0.07,0.05,-1.01,1.43,-1.13,-0.37,3.11,29.93,39.76,1
344651,-0.07,0.05,-1.01,1.93,-0.99,-0.38,2.96,30.01,39.6,1
344663,-0.07,0.05,-1.01,2.08,-0.96,-0.33,2.96,30.01,39.6,1
344675,-0.07,0.05,-1.01,2.06,-1.06,-0.35,2.96,30.01,39.6,1
344686,-0.07,0.05,-1.01,2.05,-1.11,-0.4,2.96,30.01,39.6,1
344698,-0.07,0.05,-1.01,2.09,-1.06,-0.44,3.12,29.99,39.53,1
344708,-0.07,0.05,-1.01,2.17,-1.0,-0.41,3.12,29.99,39.53,1
344719,-0.07,0.05,-1.01,2.06,-0.9,-0.4,3.12,29.99,39.53,1
344730,-0.07,0.05,-1.01,1.9,-0.87,-0.31,3.12,29.99,39.53,1
344742,-0.07,0.05,-1.01,1.79,-0.83,-0.18,3.12,29.99,39.53,1
344755,-0.07,0.05,-1.01,1.98,-0.72,0.14,3.14,30.01,39.45,1
344766,-0.08,0.05,-1.01,2.19,-0.67,0.2,3.14,30.01,39.45,1
344778,-0.08,0.05,-1.01,2.39,-0.74,0.22,3.14,30.01,39.45,1
344789,-0.08,0.06,-1.01,2.26,-0.91,0.18,3.14,30.01,39.45,1
344800,-0.07,0.06,-1.01,2.09,-1.13,0.1,3.09,29.98,39.48,1
344813,-0.07,0.06,-1.01,1.82,-1.35,-0.05,3.09,29.98,39.48,1
344824,-0.07,0.06,-1.01,1.79,-1.4,-0.13,3.09,29.98,39.48,1
344836,-0.07,0.06,-1.01,1.82,-1.45,-0.16,3.09,29.98,39.48,1
344847,-0.07,0.06,-1.01,1.78,-1.51,-0.16,3.03,29.97,39.37,1
344858,-0.07,0.06,-1.01,1.64,-1.51,-0.17,3.03,29.97,39.37,1
344869,-0.07,0.05,-1.01,1.41,-1.52,-0.2,3.03,29.97,39.37,1
344883,-0.07,0.05,-1.0,1.21,-1.53,-0.12,3.03,29.97,39.37,1
344895,-0.07,0.05,-1.0,1.25,-1.5,-0.06,3.03,29.97,39.37,1
344906,-0.07,0.05,-1.0,1.39,-1.36,-0.06,2.97,29.97,39.32,1
344918,-0.07,0.05,-1.0,1.65,-1.05,-0.04,2.97,29.97,39.32,1
344930,-0.07,0.05,-1.0,1.74,-0.88,0.03,2.97,29.97,39.32,1
344940,-0.07,0.05,-1.01,1.83,-0.74,0.06,2.97,29.97,39.32,1
344953,-0.07,0.05,-1.01,2.04,-0.57,0.15,2.9,29.97,39.34,1
344964,-0.07,0.05,-1.01,2.09,-0.59,0.14,2.9,29.97,39.34,1
344977,-0.07,0.05,-1.02,2.0,-0.87,0.05,2.9,29.97,39.34,1
344989,-0.07,0.05,-1.02,2.06,-0.98,0.07,2.9,29.97,39.34,1
345000,-0.07,0.05,-1.02,2.21,-1.02,0.08,3.0,29.97,39.36,1
345012,-0.07,0.05,-1.01,2.58,-1.18,0.09,3.0,29.97,39.36,1
345024,-0.07,0.05,-1.01,2.7,-1.24,0.06,3.0,29.97,39.36,1
345036,-0.07,0.05,-1.01,2.76,-1.42,0.05,3.0,29.97,39.36,1
345048,-0.07,0.05,-1.01,2.66,-1.4,0.09,3.09,29.96,39.43,1
345059,-0.07,0.05,-1.01,2.57,-1.4,0.13,3.09,29.96,39.43,1
345070,-0.07,0.05,-1.0,2.35,-1.25,0.18,3.09,29.96,39.43,1
345081,-0.07,0.05,-1.0,2.35,-1.12,0.22,3.09,29.96,39.43,1
345093,-0.07,0.05,-1.0,2.41,-1.01,0.31,3.09,29.96,39.43,1
345105,-0.07,0.05,-1.0,2.45,-0.95,0.41,3.23,29.85,39.64,1
345116,-0.07,0.05,-1.01,2.27,-0.9,0.39,3.23,29.85,39.64,1
345128,-0.07,0.05,-1.01,2.03,-0.92,0.37,3.23,29.85,39.64,1
345141,-0.07,0.06,-1.01,1.95,-0.91,0.39,3.23,29.85,39.64,1
345152,-0.08,0.06,-1.01,2.07,-0.91,0.39,3.36,29.87,39.63,1
345165,-0.08,0.06,-1.01,2.28,-0.99,0.23,3.36,29.87,39.63,1
345176,-0.07,0.06,-1.01,2.17,-1.08,0.19,3.36,29.87,39.63,1
345187,-0.07,0.06,-1.01,1.97,-1.17,0.23,3.36,29.87,39.63,1
345199,-0.07,0.05,-1.01,2.24,-1.14,0.29,3.29,29.82,39.74,1
345210,-0.07,0.05,-1.01,2.78,-1.05,0.35,3.29,29.82,39.74,1
345222,-0.07,0.06,-1.01,3.2,-0.89,0.35,3.29,29.82,39.74,1
345235,-0.07,0.06,-1.01,3.28,-0.74,0.4,3.29,29.82,39.74,1
345246,-0.08,0.06,-1.01,3.06,-0.74,0.45,3.35,29.77,39.63,1
345258,-0.08,0.06,-1.01,2.91,-0.81,0.43,3.35,29.77,39.63,1
345270,-0.08,0.06,-1.01,3.2,-0.87,0.29,3.35,29.77,39.63,1
345281,-0.08,0.06,-1.01,3.38,-0.93,0.23,3.35,29.77,39.63,1
345294,-0.08,0.06,-1.01,3.25,-1.16,0.04,3.35,29.77,39.63,1
345306,-0.08,0.06,-1.01,3.03,-1.24,-0.02,3.35,29.71,39.64,1
345318,-0.07,0.06,-1.01,2.69,-1.32,-0.07,3.35,29.71,39.64,1
345330,-0.07,0.06,-1.01,2.25,-1.47,-0.02,3.35,29.71,39.64,1
345341,-0.07,0.06,-1.0,2.35,-1.46,0.01,3.35,29.71,39.64,1
345352,-0.07,0.06,-1.0,2.49,-1.4,0.02,3.43,29.64,39.57,1
345364,-0.07,0.06,-1.0,2.27,-1.2,-0.01,3.43,29.64,39.57,1
345376,-0.07,0.06,-1.0,1.91,-1.17,0.02,3.43,29.64,39.57,1
345390,-0.07,0.06,-1.0,1.52,-1.13,0.12,3.43,29.64,39.57,1
345400,-0.07,0.06,-1.01,1.66,-0.97,0.23,3.42,29.7,39.66,1
345412,-0.07,0.06,-1.01,1.94,-0.8,0.33,3.42,29.7,39.66,1
345423,-0.08,0.06,-1.01,2.38,-0.6,0.45,3.42,29.7,39.66,1
345434,-0.08,0.06,-1.02,2.34,-0.73,0.51,3.42,29.7,39.66,1
345446,-0.08,0.06,-1.02,2.18,-0.93,0.48,3.42,29.65,39.66,1
345458,-0.08,0.07,-1.02,1.99,-1.35,0.22,3.42,29.65,39.66,1
345470,-0.08,0.07,-1.02,1.91,-1.59,0.08,3.42,29.65,39.66,1
345482,-0.07,0.07,-1.02,1.84,-1.97,-0.12,3.42,29.65,39.66,1
345493,-0.07,0.06,-1.01,1.81,-2.07,-0.2,3.42,29.65,39.66,1
345504,-0.07,0.06,-1.01,1.91,-2.13,-0.29,3.36,29.7,39.8,1
345517,-0.07,0.06,-1.0,2.08,-1.96,-0.37,3.36,29.7,39.8,1
345528,-0.07,0.06,-1.0,2.05,-1.8,-0.32,3.36,29.7,39.8,1
345540,-0.08,0.06,-1.0,2.04,-1.7,-0.23,3.36,29.7,39.8,1
345553,-0.08,0.06,-1.0,2.29,-1.46,-0.2,3.37,29.83,39.68,1
345565,-0.08,0.06,-1.0,2.38,-1.26,-0.23,3.37,29.83,39.68,1
345575,-0.08,0.06,-1.0,2.33,-1.09,-0.26,3.37,29.83,39.68,1
345586,-0.07,0.06,-1.0,1.69,-1.07,-0.13,3.37,29.83,39.68,1
345598,-0.07,0.06,-1.01,1.44,-1.08,-0.13,3.35,29.85,39.44,1
345610,-0.07,0.06,-1.01,1.3,-1.1,-0.2,3.35,29.85,39.44,1
345622,-0.07,0.06,-1.01,1.15,-1.12,-0.29,3.35,29.85,39.44,1
345633,-0.07,0.06,-1.01,1.23,-1.15,-0.27,3.35,29.85,39.44,1
345647,-0.07,0.06,-1.01,1.78,-1.13,-0.46,3.28,29.86,39.45,1
345659,-0.07,0.06,-1.01,1.76,-1.12,-0.81,3.28,29.86,39.45,1
345670,-0.07,0.06,-1.01,1.61,-1.06,-1.04,3.28,29.86,39.45,1
345682,-0.07,0.05,-1.01,1.47,-1.32,-0.7,3.28,29.86,39.45,1
345694,-0.07,0.05,-1.01,1.59,-1.39,-0.41,3.28,29.86,39.45,1
345706,-0.07,0.05,-1.01,1.64,-1.38,-0.14,3.27,29.85,39.39,1
345717,-0.07,0.05,-1.0,1.54,-1.26,-0.11,3.27,29.85,39.39,1
345729,-0.07,0.05,-1.01,1.53,-1.2,0.04,3.27,29.85,39.39,1
345742,-0.07,0.05,-1.01,1.99,-0.97,0.63,3.27,29.85,39.39,1
345753,-0.07,0.05,-1.01,2.23,-0.83,0.95,3.28,29.77,39.52,1
345766,-0.07,0.05,-1.01,2.56,-0.6,1.22,3.28,29.77,39.52,1
345777,-0.07,0.06,-1.02,2.84,-0.6,1.27,3.28,29.77,39.52,1
345789,-0.07,0.06,-1.02,3.1,-0.71,1.29,3.28,29.77,39.52,1
345801,-0.08,0.06,-1.02,3.5,-1.13,1.22,3.24,29.68,39.49,1
345811,-0.07,0.06,-1.01,3.32,-1.29,1.04,3.24,29.68,39.49,1
345823,-0.07,0.06,-1.01,2.9,-1.4,0.87,3.24,29.68,39.49,1
345836,-0.07,0.06,-1.01,2.3,-1.57,0.69,3.24,29.68,39.49,1
345847,-0.07,0.06,-1.01,2.28,-1.56,0.74,3.14,29.62,39.58,1
345859,-0.07,0.06,-1.01,2.45,-1.48,0.77,3.14,29.62,39.58,1
345871,-0.08,0.07,-1.0,2.92,-1.17,0.76,3.14,29.62,39.58,1
345883,-0.08,0.07,-1.0,2.94,-1.02,0.72,3.14,29.62,39.58,1
345897,-0.08,0.07,-1.0,2.41,-0.92,0.56,3.28,29.64,39.73,1
345909,-0.08,0.07,-1.01,2.21,-0.91,0.54,3.28,29.64,39.73,1
345923,-0.08,0.07,-1.01,2.08,-0.83,0.37,3.28,29.64,39.73,1
345934,-0.08,0.07,-1.01,2.13,-0.82,0.29,3.28,29.64,39.73,1
345945,-0.08,0.07,-1.01,2.11,-0.83,0.21,3.27,29.64,39.86,1
345957,-0.08,0.06,-1.01,1.92,-1.06,0.08,3.27,29.64,39.86,1
345969,-0.07,0.06,-1.01,1.82,-1.09,0.02,3.27,29.64,39.86,1
345983,-0.07,0.06,-1.01,1.93,-1.21,-0.1,3.27,29.64,39.86,1
345993,-0.07,0.06,-1.01,2.01,-1.26,-0.2,3.27,29.64,39.86,1
346004,-0.07,0.06,-1.01,2.0,-1.28,-0.25,3.35,29.5,39.78,1
346017,-0.07,0.06,-1.01,1.6,-1.4,-0.16,3.35,29.5,39.78,1
346029,-0.07,0.06,-1.01,1.44,-1.47,-0.07,3.35,29.5,39.78,1
346042,-0.07,0.05,-1.01,1.62,-1.38,0.11,3.35,29.5,39.78,1
346053,-0.07,0.05,-1.01,1.9,-1.25,0.22,3.46,29.43,39.67,1
346065,-0.07,0.06,-1.01,2.13,-1.1,0.35,3.46,29.43,39.67,1
346077,-0.07,0.06,-1.01,2.09,-0.87,0.52,3.46,29.43,39.67,1
346089,-0.07,0.06,-1.01,1.9,-0.92,0.58,3.46,29.43,39.67,1
346099,-0.08,0.06,-1.01,1.75,-1.03,0.58,3.45,29.46,39.75,1
346111,-0.08,0.06,-1.02,1.73,-1.27,0.59,3.45,29.46,39.75,1
346123,-0.08,0.07,-1.02,2.0,-1.37,0.51,3.45,29.46,39.75,1
346135,-0.08,0.07,-1.02,2.51,-1.48,0.34,3.45,29.46,39.75,1
346147,-0.08,0.07,-1.01,2.58,-1.54,0.28,3.48,29.45,39.92,1
346159,-0.08,0.07,-1.01,2.52,-1.67,0.21,3.48,29.45,39.92,1
346170,-0.08,0.07,-1.01,2.27,-1.82,0.05,3.48,29.45,39.92,1
346181,-0.07,0.07,-1.0,2.3,-1.79,-0.0,3.48,29.45,39.92,1
346193,-0.07,0.07,-1.0,2.44,-1.68,-0.06,3.48,29.45,39.92,1
346206,-0.07,0.07,-1.0,2.53,-1.28,-0.14,3.47,29.63,39.86,1
346217,-0.07,0.07,-1.0,2.31,-1.12,-0.18,3.47,29.63,39.86,1
346229,-0.07,0.07,-1.0,2.04,-1.05,-0.14,3.47,29.63,39.86,1
346241,-0.07,0.07,-1.0,1.7,-0.92,-0.11,3.47,29.63,39.86,1
346252,-0.07,0.07,-1.0,1.61,-0.85,-0.2,3.41,29.61,39.74,1
346265,-0.07,0.07,-1.01,1.37,-0.7,-0.25,3.41,29.61,39.74,1
346276,-0.07,0.07,-1.01,1.28,-0.73,-0.18,3.41,29.61,39.74,1
346287,-0.08,0.07,-1.01,1.32,-0.81,-0.15,3.41,29.61,39.74,1
346300,-0.07,0.07,-1.02,1.39,-1.03,-0.41,3.29,29.5,39.66,1
346312,-0.07,0.07,-1.02,1.46,-1.1,-0.47,3.29,29.5,39.66,1
346326,-0.07,0.06,-1.02,1.69,-1.2,-0.49,3.29,29.5,39.66,1
346337,-0.07,0.06,-1.01,1.88,-1.34,-0.54,3.29,29.5,39.66,1
346348,-0.07,0.06,-1.01,2.06,-1.49,-0.56,3.26,29.44,39.81,1
346360,-0.07,0.06,-1.0,1.93,-1.59,-0.63,3.26,29.44,39.81,1
346371,-0.07,0.06,-1.0,1.57,-1.51,-0.57,3.26,29.44,39.81,1
346382,-0.07,0.06,-1.0,1.25,-1.43,-0.44,3.26,29.44,39.81,1
346395,-0.07,0.06,-1.01,1.28,-1.11,-0.22,3.31,29.52,39.86,1
346407,-0.07,0.06,-1.01,1.61,-0.92,-0.15,3.31,29.52,39.86,1
346421,-0.07,0.06,-1.01,2.24,-0.63,-0.19,3.31,29.52,39.86,1
346432,-0.07,0.06,-1.01,2.25,-0.71,-0.23,3.31,29.52,39.86,1
346447,-0.07,0.06,-1.01,1.72,-1.09,-0.27,3.31,29.51,39.94,1
346459,-0.07,0.06,-1.01,1.53,-1.24,-0.23,3.31,29.51,39.94,1
346472,-0.07,0.06,-1.01,1.72,-1.27,-0.13,3.31,29.51,39.94,1
346484,-0.07,0.06,-1.01,1.85,-1.22,-0.13,3.31,29.51,39.94,1
346495,-0.07,0.06,-1.01,1.81,-1.21,-0.11,3.25,29.52,39.81,1
346506,-0.07,0.06,-1.0,1.62,-1.24,-0.09,3.25,29.52,39.81,1
346518,-0.07,0.06,-1.0,1.31,-1.27,-0.14,3.25,29.52,39.81,1
346531,-0.07,0.06,-1.0,1.28,-1.05,-0.02,3.25,29.52,39.81,1
346541,-0.07,0.06,-1.01,1.68,-0.79,0.07,3.25,29.52,39.81,1
346552,-0.07,0.06,-1.01,2.07,-0.6,0.09,3.26,29.47,39.66,1
346565,-0.07,0.06,-1.01,2.21,-0.52,0.09,3.26,29.47,39.66,1
346576,-0.07,0.06,-1.01,2.15,-0.56,0.14,3.26,29.47,39.66,1
346588,-0.08,0.06,-1.02,2.23,-0.62,0.19,3.26,29.47,39.66,1
346599,-0.08,0.06,-1.02,2.59,-0.84,0.13,3.29,29.51,39.5,1
346610,-0.08,0.07,-1.02,2.54,-0.99,0.06,3.29,29.51,39.5,1
346622,-0.08,0.07,-1.01,2.19,-1.18,0.01,3.29,29.51,39.5,1
346635,-0.08,0.06,-1.01,1.37,-1.64,-0.07,3.29,29.51,39.5,1
346647,-0.08,0.06,-1.01,1.35,-1.71,-0.13,3.28,29.41,39.54,1
346657,-0.08,0.06,-1.01,1.64,-1.67,-0.17,3.28,29.41,39.54,1
346668,-0.07,0.06,-1.0,1.91,-1.34,-0.19,3.28,29.41,39.54,1
346679,-0.07,0.06,-1.0,1.79,-1.23,-0.16,3.28,29.41,39.54,1
346690,-0.08,0.06,-1.0,1.69,-1.14,-0.12,3.28,29.41,39.54,1
346703,-0.08,0.06,-1.01,1.82,-1.08,-0.14,3.38,29.36,39.89,1
346714,-0.07,0.06,-1.0,1.89,-1.03,-0.17,3.38,29.36,39.89,1
346724,-0.07,0.06,-1.0,1.92,-0.96,-0.18,3.38,29.36,39.89,1
346735,-0.07,0.06,-1.0,1.89,-0.94,-0.14,3.38,29.36,39.89,1
346748,-0.07,0.06,-1.01,1.81,-0.83,0.05,3.43,29.32,40.07,1
346760,-0.07,0.06,-1.01,1.82,-0.78,0.17,3.43,29.32,40.07,1
346771,-0.07,0.06,-1.01,1.69,-0.8,0.25,3.43,29.32,40.07,1
346782,-0.08,0.07,-1.01,1.6,-0.88,0.27,3.43,29.32,40.07,1
346795,-0.08,0.07,-1.02,1.56,-0.95,0.23,3.44,29.35,39.99,1
346805,-0.08,0.07,-1.02,1.55,-1.26,-0.0,3.44,29.35,39.99,1
346816,-0.08,0.07,-1.02,1.61,-1.38,-0.12,3.44,29.35,39.99,1
346828,-0.08,0.06,-1.02,1.71,-1.52,-0.15,3.44,29.35,39.99,1
346841,-0.08,0.06,-1.01,1.75,-1.69,-0.11,3.44,29.35,39.99,1
346853,-0.08,0.06,-1.01,1.78,-1.77,-0.2,3.39,29.25,39.87,1
346863,-0.08,0.06,-1.01,1.84,-1.88,-0.33,3.39,29.25,39.87,1
346876,-0.07,0.06,-1.0,1.83,-1.95,-0.47,3.39,29.25,39.87,1
346888,-0.07,0.06,-1.0,1.7,-1.91,-0.48,3.39,29.25,39.87,1
346898,-0.07,0.06,-1.0,1.55,-1.77,-0.45,3.43,29.24,39.89,1
346911,-0.07,0.06,-1.0,1.64,-1.41,-0.39,3.43,29.24,39.89,1
346921,-0.07,0.06,-1.0,1.87,-1.19,-0.32,3.43,29.24,39.89,1
346932,-0.07,0.06,-1.0,2.07,-1.02,-0.22,3.43,29.24,39.89,1
346945,-0.07,0.06,-1.01,1.94,-0.79,-0.1,3.52,29.24,39.95,1
346957,-0.07,0.06,-1.01,1.76,-0.83,-0.06,3.52,29.24,39.95,1
346967,-0.07,0.06,-1.01,1.64,-0.92,-0.1,3.52,29.24,39.95,1
346978,-0.07,0.06,-1.01,1.99,-1.16,-0.18,3.52,29.24,39.95,1
346990,-0.07,0.06,-1.01,2.1,-1.22,-0.2,3.52,29.24,39.95,1
347001,-0.07,0.06,-1.01,2.0,-1.23,-0.17,3.48,29.31,40.09,1
347013,-0.07,0.06,-1.01,1.56,-1.29,-0.05,3.48,29.31,40.09,1
347025,-0.07,0.06,-1.01,1.51,-1.29,-0.04,3.48,29.31,40.09,1
347038,-0.07,0.06,-1.01,1.82,-1.16,-0.06,3.48,29.31,40.09,1
347050,-0.07,0.06,-1.01,1.82,-1.12,-0.05,3.5,29.35,40.17,1
347061,-0.07,0.06,-1.01,1.76,-1.1,0.02,3.5,29.35,40.17,1
347073,-0.07,0.06,-1.01,1.51,-1.06,0.05,3.5,29.35,40.17,1
347084,-0.07,0.06,-1.01,1.61,-1.04,0.03,3.5,29.35,40.17,1
347095,-0.07,0.06,-1.01,1.76,-0.99,0.04,3.46,29.25,40.35,1
347107,-0.07,0.06,-1.01,1.96,-0.98,0.1,3.46,29.25,40.35,1
347119,-0.07,0.06,-1.01,1.78,-1.03,0.1,3.46,29.25,40.35,1
347131,-0.07,0.06,-1.01,1.33,-1.29,0.09,3.46,29.25,40.35,1
347142,-0.07,0.06,-1.01,1.25,-1.45,0.01,3.46,29.25,40.35,1
347153,-0.07,0.06,-1.01,1.38,-1.53,-0.08,3.32,29.28,40.25,1
347166,-0.07,0.06,-1.01,1.95,-1.35,-0.25,3.32,29.28,40.25,1
347177,-0.07,0.06,-1.0,2.22,-1.17,-0.23,3.32,29.28,40.25,1
347189,-0.07,0.06,-1.0,2.39,-1.04,-0.15,3.32,29.28,40.25,1
347202,-0.07,0.06,-1.01,2.4,-0.8,0.09,3.28,29.39,40.2,1
347214,-0.08,0.06,-1.01,2.24,-0.79,0.11,3.28,29.39,40.2,1
347226,-0.08,0.06,-1.01,1.85,-0.99,0.04,3.28,29.39,40.2,1
347237,-0.08,0.06,-1.01,1.67,-1.14,0.02,3.28,29.39,40.2,1
347248,-0.07,0.06,-1.01,1.56,-1.25,-0.03,3.28,29.37,40.15,1
347261,-0.07,0.06,-1.01,1.76,-1.26,-0.16,3.28,29.37,40.15,1
347271,-0.07,0.06,-1.01,1.94,-1.21,-0.19,3.28,29.37,40.15,1
347282,-0.07,0.06,-1.01,2.09,-1.18,-0.15,3.28,29.37,40.15,1
347294,-0.07,0.06,-1.01,2.27,-1.19,-0.05,3.29,29.28,40.14,1
347305,-0.07,0.06,-1.01,2.49,-1.14,0.07,3.29,29.28,40.14,1
347317,-0.07,0.06,-1.01,2.66,-1.04,0.09,3.29,29.28,40.14,1
347329,-0.07,0.06,-1.01,2.19,-1.19,0.13,3.29,29.28,40.14,1
347340,-0.07,0.06,-1.01,1.8,-1.31,0.12,3.29,29.28,40.14,1
347351,-0.07,0.06,-1.01,1.51,-1.41,0.14,3.29,29.26,40.22,1
347364,-0.07,0.06,-1.01,1.57,-1.35,0.12,3.29,29.26,40.22,1
347374,-0.07,0.06,-1.01,1.66,-1.29,0.1,3.29,29.26,40.22,1
347386,-0.07,0.06,-1.01,1.64,-1.32,0.12,3.29,29.26,40.22,1
347398,-0.07,0.06,-1.01,1.49,-1.45,0.15,3.4,29.3,40.19,1
347409,-0.07,0.06,-1.01,1.63,-1.41,0.13,3.4,29.3,40.19,1
347420,-0.07,0.06,-1.01,1.92,-1.32,0.09,3.4,29.3,40.19,1
347434,-0.07,0.06,-1.01,2.46,-1.19,0.13,3.4,29.3,40.19,1
347445,-0.07,0.06,-1.01,2.46,-1.13,0.25,3.31,29.25,40.28,1
347456,-0.07,0.06,-1.01,2.29,-1.14,0.33,3.31,29.25,40.28,1
347468,-0.07,0.07,-1.01,2.06,-1.23,0.22,3.31,29.25,40.28,1
347480,-0.07,0.06,-1.01,2.11,-1.24,0.17,3.31,29.25,40.28,1
347494,-0.07,0.07,-1.01,2.07,-1.18,0.15,3.34,29.22,40.21,1
347505,-0.07,0.07,-1.01,1.88,-1.18,0.12,3.34,29.22,40.21,1
347517,-0.08,0.07,-1.01,1.59,-1.23,-0.0,3.34,29.22,40.21,1
347529,-0.08,0.06,-1.01,1.45,-1.37,-0.14,3.34,29.22,40.21,1
347540,-0.08,0.06,-1.01,1.59,-1.47,-0.16,3.34,29.22,40.21,1
347552,-0.08,0.06,-1.01,1.89,-1.66,-0.23,3.29,29.28,40.06,1
347563,-0.07,0.06,-1.01,1.89,-1.67,-0.31,3.29,29.28,40.06,1
347575,-0.07,0.06,-1.01,1.84,-1.69,-0.31,3.29,29.28,40.06,1
347589,-0.07,0.06,-1.0,1.81,-1.66,-0.17,3.29,29.28,40.06,1
347600,-0.07,0.06,-1.0,1.96,-1.51,-0.11,3.36,29.22,39.97,1
347612,-0.07,0.06,-1.0,2.3,-1.12,-0.07,3.36,29.22,39.97,1
347623,-0.07,0.06,-1.0,2.25,-1.04,-0.04,3.36,29.22,39.97,1
347635,-0.07,0.06,-1.0,2.09,-1.01,-0.02,3.36,29.22,39.97,1
347647,-0.07,0.06,-1.01,1.61,-1.06,-0.03,3.34,29.19,40.02,1
347658,-0.07,0.06,-1.01,1.54,-1.06,-0.11,3.34,29.19,40.02,1
347670,-0.07,0.06,-1.01,1.55,-1.05,-0.22,3.34,29.19,40.02,1
347680,-0.07,0.06,-1.01,1.63,-1.1,-0.25,3.34,29.19,40.02,1
347692,-0.07,0.06,-1.01,2.06,-1.23,-0.25,3.34,29.19,40.02,1
347703,-0.07,0.06,-1.01,2.32,-1.19,-0.23,3.39,29.32,39.94,1
347714,-0.07,0.06,-1.01,2.42,-1.09,-0.21,3.39,29.32,39.94,1
347726,-0.07,0.06,-1.01,1.98,-1.0,-0.25,3.39,29.32,39.94,1
347738,-0.07,0.06,-1.01,1.63,-1.09,-0.27,3.39,29.32,39.94,1
347750,-0.07,0.06,-1.01,1.45,-1.0,-0.25,3.4,29.31,39.83,1
347761,-0.07,0.06,-1.01,1.66,-0.9,-0.27,3.4,29.31,39.83,1
347773,-0.07,0.06,-1.01,1.92,-0.89,-0.33,3.4,29.31,39.83,1
347786,-0.07,0.06,-1.01,2.22,-0.92,-0.22,3.4,29.31,39.83,1
347797,-0.07,0.06,-1.01,2.12,-1.0,-0.16,3.47,29.31,39.73,1
347810,-0.07,0.06,-1.01,1.92,-1.03,-0.11,3.47,29.31,39.73,1
347821,-0.07,0.06,-1.01,1.96,-0.99,-0.09,3.47,29.31,39.73,1
347833,-0.07,0.06,-1.01,2.04,-0.96,-0.06,3.47,29.31,39.73,1
347844,-0.07,0.06,-1.01,2.12,-0.97,-0.03,3.36,29.31,39.87,1
347855,-0.07,0.06,-1.01,2.08,-0.97,0.03,3.36,29.31,39.87,1
347866,-0.07,0.06,-1.01,1.95,-1.04,0.04,3.36,29.31,39.87,1
347879,-0.07,0.06,-1.01,1.89,-1.07,0.09,3.36,29.31,39.87,1
347890,-0.08,0.06,-1.01,1.82,-1.07,0.07,3.36,29.31,39.87,1
347901,-0.08,0.06,-1.01,1.63,-1.15,0.07,3.21,29.34,39.75,1
347915,-0.08,0.06,-1.01,1.17,-1.23,0.03,3.21,29.34,39.75,1
347925,-0.08,0.06,-1.01,1.2,-1.27,0.03,3.21,29.34,39.75,1
347935,-0.08,0.06,-1.01,1.43,-1.22,0.03,3.21,29.34,39.75,1
347945,-0.08,0.06,-1.01,1.69,-1.15,0.05,3.28,29.5,39.78,1
347957,-0.08,0.06,-1.01,1.9,-0.96,0.07,3.28,29.5,39.78,1
347969,-0.08,0.06,-1.01,1.94,-0.95,0.04,3.28,29.5,39.78,1
347982,-0.08,0.06,-1.01,2.0,-1.01,-0.08,3.28,29.5,39.78,1
347993,-0.07,0.06,-1.01,2.07,-1.07,-0.17,3.16,29.5,39.91,1
348005,-0.07,0.06,-1.01,2.06,-1.09,-0.23,3.16,29.5,39.91,1
348016,-0.07,0.06,-1.01,1.94,-0.96,-0.12,3.16,29.5,39.91,1
348027,-0.08,0.06,-1.01,2.03,-0.91,-0.01,3.16,29.5,39.91,1
348039,-0.08,0.06,-1.01,2.14,-0.88,0.06,3.16,29.5,39.91,1
348051,-0.08,0.06,-1.01,2.08,-1.07,0.02,3.16,29.41,39.73,1
348061,-0.08,0.06,-1.01,2.03,-1.17,-0.04,3.16,29.41,39.73,1
348073,-0.08,0.06,-1.01,1.92,-1.26,-0.08,3.16,29.41,39.73,1
348087,-0.07,0.06,-1.01,2.06,-1.29,-0.1,3.16,29.41,39.73,1
348098,-0.07,0.06,-1.01,2.21,-1.23,-0.09,3.09,29.45,39.8,1
348108,-0.07,0.06,-1.01,2.29,-1.19,-0.0,3.09,29.45,39.8,1
348118,-0.07,0.06,-1.0,2.2,-1.09,0.04,3.09,29.45,39.8,1
348129,-0.07,0.06,-1.0,1.95,-0.95,0.24,3.09,29.45,39.8,1
348141,-0.07,0.06,-1.01,1.83,-0.86,0.34,3.09,29.45,39.8,1
348152,-0.07,0.06,-1.01,1.79,-0.81,0.41,3.11,29.37,39.86,1
348164,-0.08,0.06,-1.01,1.8,-0.67,0.54,3.11,29.37,39.86,1
348175,-0.08,0.06,-1.01,1.88,-0.7,0.58,3.11,29.37,39.86,1
348188,-0.08,0.07,-1.01,2.11,-0.94,0.43,3.11,29.37,39.86,1
348200,-0.08,0.07,-1.01,2.19,-1.08,0.28,3.15,29.31,39.88,1
348212,-0.08,0.07,-1.01,2.15,-1.18,0.18,3.15,29.31,39.88,1
348222,-0.08,0.07,-1.01,1.96,-1.23,0.04,3.15,29.31,39.88,1
348233,-0.08,0.07,-1.01,1.71,-1.27,-0.04,3.15,29.31,39.88,1
348245,-0.08,0.07,-1.01,1.4,-1.31,-0.11,3.2,29.27,40.08,1
348255,-0.08,0.07,-1.01,1.17,-1.37,-0.19,3.2,29.27,40.08,1
348267,-0.08,0.07,-1.01,1.11,-1.41,-0.41,3.2,29.27,40.08,1
348279,-0.08,0.07,-1.01,1.25,-1.41,-0.52,3.2,29.27,40.08,1
348289,-0.08,0.07,-1.01,1.46,-1.36,-0.58,3.2,29.27,40.08,1
348302,-0.08,0.06,-1.01,1.97,-1.23,-0.66,3.21,29.38,40.04,1
348313,-0.08,0.06,-1.01,2.12,-1.18,-0.72,3.21,29.38,40.04,1
348324,-0.08,0.06,-1.01,2.13,-1.16,-0.74,3.21,29.38,40.04,1
348336,-0.07,0.06,-1.01,1.86,-1.15,-0.61,3.21,29.38,40.04,1
348347,-0.07,0.06,-1.01,1.76,-1.11,-0.52,3.24,29.35,40.14,1
348360,-0.07,0.06,-1.01,2.17,-0.79,-0.3,3.24,29.35,40.14,1
348371,-0.08,0.06,-1.01,2.53,-0.66,-0.21,3.24,29.35,40.14,1
348381,-0.08,0.06,-1.01,2.74,-0.61,-0.15,3.24,29.35,40.14,1
348393,-0.08,0.06,-1.01,2.66,-0.7,-0.1,3.2,29.37,40.16,1
348404,-0.08,0.06,-1.01,2.38,-0.82,-0.07,3.2,29.37,40.16,1
348416,-0.08,0.06,-1.01,2.11,-0.95,-0.12,3.2,29.37,40.16,1
348429,-0.08,0.06,-1.01,2.02,-1.19,-0.17,3.2,29.37,40.16,1
348440,-0.07,0.06,-1.01,2.02,-1.21,-0.13,3.2,29.37,40.16,1
348451,-0.07,0.06,-1.01,1.94,-1.27,-0.11,3.1,29.38,40.06,1
348461,-0.07,0.06,-1.01,1.78,-1.31,-0.16,3.1,29.38,40.06,1
348473,-0.07,0.06,-1.01,1.4,-1.27,-0.35,3.1,29.38,40.06,1
348483,-0.07,0.06,-1.0,1.2,-1.29,-0.45,3.1,29.38,40.06,1
348493,-0.07,0.06,-1.0,1.0,-1.26,-0.47,3.14,29.29,40.14,1
348504,-0.07,0.06,-1.01,0.88,-1.2,-0.41,3.14,29.29,40.14,1
348516,-0.08,0.06,-1.01,1.05,-1.07,-0.25,3.14,29.29,40.14,1
348526,-0.08,0.06,-1.01,1.33,-1.01,-0.15,3.14,29.29,40.14,1
348537,-0.08,0.06,-1.01,1.6,-1.0,-0.11,3.14,29.29,40.14,1
348550,-0.08,0.06,-1.01,1.93,-1.12,-0.21,3.35,29.36,40.04,1
348562,-0.08,0.06,-1.01,1.96,-1.15,-0.26,3.35,29.36,40.04,1
348575,-0.08,0.06,-1.01,2.07,-1.26,-0.38,3.35,29.36,40.04,1
348585,-0.08,0.06,-1.01,2.19,-1.25,-0.38,3.35,29.36,40.04,1
348596,-0.08,0.06,-1.01,2.3,-1.23,-0.34,3.34,29.33,39.88,1
348610,-0.07,0.06,-1.01,2.33,-1.05,-0.17,3.34,29.33,39.88,1
348622,-0.08,0.06,-1.01,2.28,-1.01,-0.08,3.34,29.33,39.88,1
348635,-0.08,0.06,-1.01,2.32,-1.04,0.13,3.34,29.33,39.88,1
348646,-0.08,0.06,-1.01,2.41,-1.09,0.09,3.25,29.37,39.91,1
348658,-0.08,0.06,-1.01,2.44,-1.13,0.02,3.25,29.37,39.91,1
348669,-0.08,0.06,-1.01,2.06,-1.16,-0.1,3.25,29.37,39.91,1
348680,-0.08,0.06,-1.01,1.91,-1.21,-0.09,3.25,29.37,39.91,1
348693,-0.08,0.06,-1.01,1.84,-1.28,-0.04,3.22,29.34,40.01,1
348705,-0.08,0.06,-1.01,2.02,-1.32,0.04,3.22,29.34,40.01,1
348717,-0.08,0.06,-1.01,2.1,-1.24,0.0,3.22,29.34,40.01,1
348727,-0.08,0.06,-1.01,2.08,-1.24,0.06,3.22,29.34,40.01,1
348737,-0.08,0.06,-1.01,1.91,-1.17,0.14,3.22,29.34,40.01,1
348749,-0.08,0.06,-1.01,1.88,-1.24,0.09,3.35,29.36,40.08,1
348761,-0.08,0.06,-1.01,2.0,-1.28,0.09,3.35,29.36,40.08,1
348772,-0.08,0.06,-1.01,2.19,-1.31,0.04,3.35,29.36,40.08,1
348783,-0.07,0.06,-1.01,2.11,-1.3,0.05,3.35,29.36,40.08,1
348794,-0.07,0.06,-1.01,2.02,-1.33,0.06,3.27,29.27,40.19,1
348808,-0.07,0.06,-1.0,2.04,-1.37,0.14,3.27,29.27,40.19,1
348819,-0.08,0.06,-1.0,1.97,-1.23,0.2,3.27,29.27,40.19,1
348831,-0.08,0.06,-1.0,1.89,-1.06,0.24,3.27,29.27,40.19,1
348844,-0.08,0.07,-1.01,1.7,-0.84,0.34,3.19,29.22,40.02,1
348855,-0.08,0.07,-1.01,1.71,-0.8,0.37,3.19,29.22,40.02,1
348866,-0.08,0.07,-1.01,1.94,-0.88,0.19,3.19,29.22,40.02,1
348877,-0.08,0.07,-1.02,2.03,-1.0,0.06,3.19,29.22,40.02,1
348889,-0.08,0.07,-1.02,2.0,-1.15,-0.05,3.19,29.22,40.02,1
348901,-0.08,0.07,-1.02,1.96,-1.49,-0.2,3.13,29.25,39.98,1
348912,-0.08,0.07,-1.01,1.97,-1.61,-0.29,3.13,29.25,39.98,1
348924,-0.08,0.07,-1.01,1.97,-1.68,-0.36,3.13,29.25,39.98,1
348937,-0.08,0.07,-1.01,1.74,-1.75,-0.44,3.13,29.25,39.98,1
348948,-0.08,0.06,-1.01,1.68,-1.69,-0.37,3.19,29.24,39.84,1
348959,-0.08,0.06,-1.01,1.86,-1.49,-0.29,3.19,29.24,39.84,1
348970,-0.08,0.06,-1.0,2.28,-1.21,-0.27,3.19,29.24,39.84,1
348981,-0.08,0.06,-1.0,2.21,-1.17,-0.28,3.19,29.24,39.84,1
348992,-0.08,0.06,-1.0,2.03,-1.13,-0.3,3.19,29.2,39.86,1
349006,-0.08,0.06,-1.01,1.71,-0.98,-0.28,3.19,29.2,39.86,1
349016,-0.08,0.06,-1.01,1.71,-0.94,-0.24,3.19,29.2,39.86,1
349026,-0.08,0.06,-1.01,1.79,-0.95,-0.19,3.19,29.2,39.86,1
349036,-0.08,0.06,-1.01,1.9,-1.01,-0.15,3.19,29.2,39.86,1
349049,-0.07,0.06,-1.01,2.0,-1.21,-0.1,3.36,29.23,40.01,1
349060,-0.07,0.06,-1.01,1.9,-1.3,-0.08,3.36,29.23,40.01,1
349073,-0.07,0.06,-1.01,1.44,-1.54,-0.0,3.36,29.23,40.01,1
349084,-0.07,0.06,-1.01,1.22,-1.68,-0.01,3.36,29.23,40.01,1
349095,-0.07,0.06,-1.01,1.03,-1.81,-0.08,3.38,29.24,39.99,1
349105,-0.07,0.06,-1.01,0.94,-1.87,-0.13,3.38,29.24,39.99,1
349116,-0.07,0.06,-1.01,1.23,-1.76,-0.07,3.38,29.24,39.99,1
349127,-0.07,0.06,-1.0,1.66,-1.6,0.07,3.38,29.24,39.99,1
349137,-0.07,0.06,-1.0,1.97,-1.44,0.16,3.38,29.24,39.99,1
349148,-0.07,0.06,-1.0,1.94,-1.32,0.25,3.39,29.27,39.86,1
349158,-0.07,0.06,-1.0,1.52,-1.19,0.46,3.39,29.27,39.86,1
349169,-0.08,0.06,-1.01,1.51,-1.13,0.57,3.39,29.27,39.86,1
349181,-0.08,0.06,-1.01,1.78,-1.07,0.65,3.39,29.27,39.86,1
349192,-0.08,0.07,-1.01,2.09,-1.01,0.67,3.29,29.3,39.87,1
349203,-0.08,0.07,-1.01,2.25,-1.03,0.61,3.29,29.3,39.87,1
349214,-0.08,0.07,-1.01,2.09,-1.15,0.43,3.29,29.3,39.87,1
349227,-0.08,0.07,-1.01,1.93,-1.34,0.16,3.29,29.3,39.87,1
349238,-0.08,0.07,-1.01,1.99,-1.34,0.03,3.29,29.3,39.87,1
349249,-0.08,0.07,-1.01,1.98,-1.29,-0.07,3.33,29.34,39.63,1
349262,-0.08,0.07,-1.01,1.68,-1.14,-0.18,3.33,29.34,39.63,1
349272,-0.08,0.07,-1.01,1.62,-1.09,-0.17,3.33,29.34,39.63,1
349283,-0.08,0.07,-1.01,1.71,-1.0,-0.17,3.33,29.34,39.63,1
349294,-0.08,0.06,-1.01,1.88,-0.93,-0.16,3.39,29.4,39.64,1
349305,-0.08,0.07,-1.01,2.01,-0.78,-0.24,3.39,29.4,39.64,1
349316,-0.08,0.06,-1.01,1.92,-0.75,-0.25,3.39,29.4,39.64,1
349327,-0.08,0.06,-1.01,1.84,-0.83,-0.25,3.39,29.4,39.64,1
349341,-0.08,0.06,-1.01,1.93,-1.13,-0.33,3.45,29.39,39.8,1
349353,-0.08,0.06,-1.01,2.0,-1.25,-0.32,3.45,29.39,39.8,1
349366,-0.08,0.06,-1.01,1.85,-1.38,-0.34,3.45,29.39,39.8,1
349378,-0.07,0.06,-1.01,1.64,-1.46,-0.31,3.45,29.39,39.8,1
349393,-0.07,0.06,-1.01,1.41,-1.58,-0.24,3.4,29.46,39.72,1
349403,-0.08,0.06,-1.01,1.45,-1.59,-0.19,3.4,29.46,39.72,1
349413,-0.08,0.06,-1.01,1.61,-1.51,-0.15,3.4,29.46,39.72,1
349423,-0.08,0.06,-1.01,1.81,-1.38,-0.06,3.4,29.46,39.72,1
349435,-0.07,0.06,-1.01,1.79,-1.22,0.16,3.4,29.46,39.72,1
349445,-0.07,0.06,-1.01,1.72,-1.21,0.29,3.39,29.5,39.77,1
349456,-0.07,0.06,-1.01,1.74,-1.26,0.34,3.39,29.5,39.77,1
349469,-0.07,0.06,-1.01,1.83,-1.42,0.2,3.39,29.5,39.77,1
349481,-0.07,0.06,-1.01,1.81,-1.43,0.17,3.39,29.5,39.77,1
349492,-0.07,0.06,-1.01,1.82,-1.4,0.17,3.46,29.54,39.84,1
349503,-0.07,0.06,-1.01,1.93,-1.27,0.25,3.46,29.54,39.84,1
349514,-0.07,0.06,-1.01,2.01,-1.18,0.26,3.46,29.54,39.84,1
349525,-0.08,0.07,-1.01,2.03,-1.12,0.27,3.46,29.54,39.84,1
349539,-0.08,0.07,-1.01,1.77,-1.18,0.3,3.46,29.54,39.84,1
349549,-0.08,0.07,-1.01,1.64,-1.21,0.24,3.44,29.44,39.84,1
349562,-0.08,0.07,-1.01,1.62,-1.23,0.03,3.44,29.44,39.84,1
349573,-0.08,0.07,-1.01,1.67,-1.27,-0.1,3.44,29.44,39.84,1
349585,-0.08,0.07,-1.01,1.62,-1.34,-0.26,3.44,29.44,39.84,1
349597,-0.08,0.07,-1.01,1.61,-1.49,-0.44,3.38,29.4,39.89,1
349608,-0.08,0.07,-1.01,1.69,-1.58,-0.53,3.38,29.4,39.89,1
349619,-0.08,0.07,-1.01,1.79,-1.66,-0.63,3.38,29.4,39.89,1
349633,-0.08,0.07,-1.01,2.16,-1.77,-0.88,3.38,29.4,39.89,1
349644,-0.07,0.06,-1.01,2.37,-1.75,-0.95,3.4,29.48,39.74,1
349657,-0.07,0.06,-1.0,2.24,-1.63,-0.92,3.4,29.48,39.74,1
349668,-0.07,0.06,-1.0,1.96,-1.53,-0.85,3.4,29.48,39.74,1
349678,-0.07,0.06,-1.0,1.78,-1.37,-0.73,3.4,29.48,39.74,1
349688,-0.07,0.06,-1.0,1.73,-1.19,-0.57,3.4,29.48,39.74,1
349700,-0.07,0.06,-1.01,2.05,-0.84,-0.29,3.43,29.49,39.85,1
349711,-0.08,0.06,-1.01,2.25,-0.71,-0.17,3.43,29.49,39.85,1
349721,-0.08,0.06,-1.01,2.38,-0.73,-0.08,3.43,29.49,39.85,1
349731,-0.08,0.06,-1.01,2.4,-0.79,-0.04,3.43,29.49,39.85,1
349742,-0.08,0.06,-1.01,2.36,-0.9,-0.03,3.34,29.38,40.02,1
349753,-0.08,0.07,-1.02,2.28,-1.07,-0.08,3.34,29.38,40.02,1
349763,-0.08,0.07,-1.01,2.2,-1.24,-0.11,3.34,29.38,40.02,1
349773,-0.08,0.07,-1.01,2.28,-1.38,-0.12,3.34,29.38,40.02,1
349783,-0.08,0.07,-1.01,2.35,-1.48,-0.16,3.34,29.38,40.02,1
349796,-0.07,0.07,-1.01,2.32,-1.45,-0.25,3.31,29.25,40.07,1
349807,-0.07,0.07,-1.01,2.23,-1.38,-0.3,3.31,29.25,40.07,1
349820,-0.08,0.07,-1.01,2.22,-1.21,-0.42,3.31,29.25,40.07,1
349831,-0.08,0.07,-1.0,2.32,-1.15,-0.48,3.31,29.25,40.07,1
349842,-0.08,0.07,-1.0,2.39,-1.07,-0.59,3.36,29.24,40.09,1
349852,-0.07,0.07,-1.0,2.4,-0.98,-0.7,3.36,29.24,40.09,1
349863,-0.07,0.07,-1.01,2.08,-0.85,-0.66,3.36,29.24,40.09,1
349874,-0.07,0.07,-1.01,2.0,-0.9,-0.59,3.36,29.24,40.09,1
349885,-0.07,0.07,-1.01,2.02,-0.95,-0.64,3.36,29.24,40.09,1
349898,-0.07,0.07,-1.01,2.29,-0.91,-0.71,3.26,29.3,40.25,1
349910,-0.07,0.07,-1.01,2.25,-0.91,-0.73,3.26,29.3,40.25,1
349923,-0.08,0.07,-1.01,1.82,-0.99,-0.66,3.26,29.3,40.25,1
349934,-0.08,0.07,-1.01,1.67,-1.14,-0.65,3.26,29.3,40.25,1
349945,-0.08,0.07,-1.01,1.58,-1.21,-0.74,3.27,29.45,40.23,1
349957,-0.08,0.07,-1.01,1.67,-1.25,-0.84,3.27,29.45,40.23,1
349968,-0.07,0.06,-1.01,1.84,-1.23,-0.81,3.27,29.45,40.23,1
349979,-0.07,0.06,-1.01,1.96,-1.21,-0.75,3.27,29.45,40.23,1
349992,-0.07,0.06,-1.01,1.87,-1.14,-0.64,3.36,29.36,40.31,1
350004,-0.07,0.06,-1.0,1.69,-1.07,-0.56,3.36,29.36,40.31,1
350016,-0.07,0.06,-1.0,1.48,-0.98,-0.46,3.36,29.36,40.31,1
350028,-0.07,0.06,-1.01,1.23,-0.89,-0.15,3.36,29.36,40.31,1
350041,-0.08,0.06,-1.01,1.24,-0.82,-0.01,3.26,29.39,40.3,1
350052,-0.08,0.06,-1.01,1.46,-0.77,0.09,3.26,29.39,40.3,1
350063,-0.08,0.06,-1.01,1.42,-0.81,-0.01,3.26,29.39,40.3,1
350073,-0.08,0.06,-1.01,1.47,-0.86,-0.1,3.26,29.39,40.3,1
350083,-0.08,0.06,-1.01,1.55,-0.9,-0.14,3.26,29.39,40.3,1
350095,-0.08,0.06,-1.01,1.65,-1.07,-0.08,3.25,29.4,40.39,1
350105,-0.08,0.06,-1.01,1.69,-1.2,-0.04,3.25,29.4,40.39,1
350117,-0.08,0.06,-1.01,1.75,-1.31,-0.0,3.25,29.4,40.39,1
350131,-0.08,0.06,-1.01,1.89,-1.51,0.03,3.25,29.4,40.39,1
350142,-0.08,0.06,-1.01,1.87,-1.53,0.01,3.19,29.34,40.57,1
350153,-0.08,0.06,-1.01,1.75,-1.49,-0.02,3.19,29.34,40.57,1
350165,-0.07,0.06,-1.0,1.52,-1.37,-0.13,3.19,29.34,40.57,1
350177,-0.07,0.06,-1.0,1.38,-1.35,-0.14,3.19,29.34,40.57,1
350191,-0.07,0.06,-1.0,1.44,-1.22,-0.1,3.21,29.37,40.43,1
350203,-0.07,0.06,-1.0,1.59,-1.09,-0.04,3.21,29.37,40.43,1
350217,-0.08,0.06,-1.01,1.66,-0.64,0.08,3.21,29.37,40.43,1
350227,-0.08,0.06,-1.01,1.72,-0.54,0.13,3.21,29.37,40.43,1
350237,-0.08,0.07,-1.01,1.75,-0.53,0.17,3.21,29.37,40.43,1
350248,-0.08,0.07,-1.02,1.81,-0.61,0.13,3.19,29.34,40.33,1
350260,-0.08,0.07,-1.02,2.05,-0.86,-0.08,3.19,29.34,40.33,1
350270,-0.08,0.07,-1.02,2.02,-1.03,-0.14,3.19,29.34,40.33,1
350281,-0.08,0.07,-1.02,1.95,-1.18,-0.18,3.19,29.34,40.33,1
350294,-0.08,0.07,-1.02,1.91,-1.46,-0.31,3.21,29.35,40.29,1
350306,-0.08,0.07,-1.01,2.02,-1.6,-0.43,3.21,29.35,40.29,1
350319,-0.08,0.07,-1.01,2.0,-1.72,-0.65,3.21,29.35,40.29,1
350330,-0.08,0.06,-1.01,1.86,-1.8,-0.7,3.21,29.35,40.29,1
350341,-0.07,0.06,-1.0,1.72,-1.82,-0.73,3.18,29.28,40.4,1
350352,-0.07,0.06,-1.0,1.69,-1.61,-0.63,3.18,29.28,40.4,1
350363,-0.07,0.06,-1.0,1.8,-1.39,-0.53,3.18,29.28,40.4,1
350375,-0.07,0.06,-1.0,1.91,-1.16,-0.41,3.18,29.28,40.4,1
350388,-0.07,0.06,-1.01,1.95,-0.83,-0.12,3.18,29.28,40.4,1
350399,-0.08,0.06,-1.01,1.86,-0.78,-0.04,3.13,29.29,40.34,1
350412,-0.08,0.06,-1.01,1.71,-0.92,-0.07,3.13,29.29,40.34,1
350423,-0.08,0.07,-1.01,1.69,-1.06,-0.17,3.13,29.29,40.34,1
350435,-0.07,0.06,-1.01,1.73,-1.15,-0.27,3.13,29.29,40.34,1
350448,-0.07,0.06,-1.01,1.85,-1.26,-0.34,3.19,29.25,40.17,1
350460,-0.07,0.06,-1.01,1.86,-1.33,-0.29,3.19,29.25,40.17,1
350470,-0.07,0.06,-1.01,1.85,-1.43,-0.23,3.19,29.25,40.17,1
350480,-0.08,0.06,-1.01,1.81,-1.52,-0.15,3.19,29.25,40.17,1
350493,-0.08,0.06,-1.01,1.57,-1.59,-0.12,3.3,29.32,40.1,1
350503,-0.08,0.06,-1.01,1.43,-1.6,-0.15,3.3,29.32,40.1,1
350513,-0.08,0.06,-1.0,1.19,-1.55,-0.17,3.3,29.32,40.1,1
350524,-0.07,0.06,-1.0,0.51,-1.55,0.0,3.3,29.32,40.1,1
350535,-0.07,0.06,-1.01,0.24,-1.56,0.15,3.3,29.32,40.1,1
350545,-0.07,0.06,-1.01,-0.03,-1.62,0.26,3.49,29.28,40.04,1
350556,-0.07,0.06,-1.01,-0.36,-1.68,0.35,3.49,29.28,40.04,1
350567,-0.07,0.06,-1.01,-0.8,-1.98,0.35,3.49,29.28,40.04,1
350578,-0.07,0.06,-1.02,-0.28,-2.1,0.18,3.49,29.28,40.04,1
350588,-0.07,0.06,-1.02,0.67,-2.03,0.01,3.49,29.28,40.04,1
350599,-0.07,0.06,-1.01,1.69,-1.78,-0.09,3.41,29.24,40.08,1
350610,-0.07,0.06,-1.01,2.45,-1.48,-0.05,3.41,29.24,40.08,1
350621,-0.07,0.06,-1.01,2.17,-1.51,0.06,3.41,29.24,40.08,1
350631,-0.07,0.06,-1.01,1.91,-1.59,0.1,3.41,29.24,40.08,1
350642,-0.07,0.06,-1.01,1.98,-1.56,0.06,3.43,29.18,40.0,1
350653,-0.07,0.06,-1.0,2.46,-1.13,0.11,3.43,29.18,40.0,1
350664,-0.07,0.06,-1.0,2.51,-0.89,0.16,3.43,29.18,40.0,1
350675,-0.07,0.06,-1.01,2.38,-0.8,0.22,3.43,29.18,40.0,1
350690,-0.08,0.06,-1.01,2.23,-0.88,0.22,3.37,29.18,40.16,1
350700,-0.08,0.06,-1.01,2.44,-0.9,0.16,3.37,29.18,40.16,1
350710,-0.07,0.06,-1.01,2.74,-0.87,0.11,3.37,29.18,40.16,1
350720,-0.07,0.06,-1.01,2.86,-0.81,0.09,3.37,29.18,40.16,1
350732,-0.07,0.06,-1.01,2.22,-0.91,0.16,3.37,29.18,40.16,1
350743,-0.07,0.06,-1.01,1.81,-1.06,0.17,3.28,29.16,40.16,1
350753,-0.07,0.06,-1.01,1.66,-1.15,0.09,3.28,29.16,40.16,1
350763,-0.07,0.06,-1.01,1.81,-1.15,-0.02,3.28,29.16,40.16,1
350775,-0.07,0.06,-1.01,2.54,-1.02,-0.08,3.28,29.16,40.16,1
350785,-0.07,0.06,-1.01,2.55,-1.02,-0.01,3.28,29.16,40.16,1
350796,-0.07,0.06,-1.01,2.27,-1.0,0.08,3.32,29.17,40.14,1
350806,-0.08,0.06,-1.01,2.0,-1.0,0.1,3.32,29.17,40.14,1
350817,-0.08,0.06,-1.01,2.14,-1.0,0.15,3.32,29.17,40.14,1
350829,-0.08,0.06,-1.01,2.38,-0.98,0.15,3.32,29.17,40.14,1
350840,-0.08,0.06,-1.01,2.46,-0.99,0.12,3.2,29.18,40.36,1
350852,-0.08,0.06,-1.01,2.11,-1.14,0.09,3.2,29.18,40.36,1
350864,-0.07,0.06,-1.01,1.86,-1.28,0.03,3.2,29.18,40.36,1
350874,-0.07,0.06,-1.01,1.56,-1.44,-0.0,3.2,29.18,40.36,1
350885,-0.07,0.06,-1.01,0.87,-1.7,-0.05,3.2,29.18,40.36,1
350897,-0.07,0.06,-1.01,0.42,-1.85,0.02,3.13,29.2,40.06,1
350907,-0.07,0.06,-1.01,-0.12,-1.93,0.08,3.13,29.2,40.06,1
350920,-0.07,0.06,-1.01,-1.47,-2.04,0.4,3.13,29.2,40.06,1
350931,-0.07,0.06,-1.02,-1.98,-2.26,0.59,3.13,29.2,40.06,1
350942,-0.08,0.06,-1.02,-1.8,-2.47,0.61,3.23,29.29,40.02,1
350952,-0.07,0.06,-1.02,-0.74,-2.49,0.41,3.23,29.29,40.02,1
350963,-0.07,0.06,-1.01,1.96,-1.95,-0.02,3.23,29.29,40.02,1
350974,-0.07,0.06,-1.01,2.54,-1.76,-0.04,3.23,29.29,40.02,1
350984,-0.07,0.06,-1.01,2.52,-1.72,0.07,3.23,29.29,40.02,1
350995,-0.07,0.06,-1.01,2.2,-1.73,0.27,3.21,29.28,39.98,1
351007,-0.07,0.06,-1.01,2.08,-1.74,0.48,3.21,29.28,39.98,1
351017,-0.07,0.06,-1.0,2.32,-1.68,0.36,3.21,29.28,39.98,1
351027,-0.07,0.06,-1.0,2.59,-1.55,0.23,3.21,29.28,39.98,1
351037,-0.07,0.06,-1.0,2.69,-1.4,0.19,3.21,29.28,39.98,1
351049,-0.07,0.06,-1.0,2.59,-1.13,0.26,3.27,29.34,40.07,1
351060,-0.07,0.06,-1.0,2.49,-1.03,0.27,3.27,29.34,40.07,1
351070,-0.07,0.06,-1.01,2.52,-0.97,0.24,3.27,29.34,40.07,1
351080,-0.07,0.06,-1.01,2.7,-0.86,0.25,3.27,29.34,40.07,1
351093,-0.07,0.06,-1.01,3.28,-0.61,0.26,3.31,29.3,39.92,1
351103,-0.07,0.07,-1.01,3.36,-0.61,0.23,3.31,29.3,39.92,1
351113,-0.07,0.07,-1.01,3.26,-0.68,0.13,3.31,29.3,39.92,1
351125,-0.07,0.07,-1.01,2.82,-1.07,-0.06,3.31,29.3,39.92,1
351136,-0.07,0.07,-1.01,2.53,-1.25,-0.14,3.31,29.3,39.92,1
351147,-0.07,0.07,-1.01,2.2,-1.4,-0.17,3.3,29.35,40.05,1
351161,-0.07,0.06,-1.0,1.59,-1.32,-0.24,3.3,29.35,40.05,1
351173,-0.07,0.06,-1.0,1.37,-1.22,-0.17,3.3,29.35,40.05,1
351186,-0.07,0.06,-1.0,0.95,-0.98,-0.03,3.3,29.35,40.05,1
351198,-0.07,0.06,-1.0,0.66,-0.96,0.03,3.26,29.28,40.03,1
351208,-0.07,0.06,-1.01,0.36,-0.95,0.12,3.26,29.28,40.03,1
351218,-0.07,0.06,-1.01,0.09,-0.93,0.19,3.26,29.28,40.03,1
351230,-0.07,0.06,-1.02,-0.42,-1.1,0.25,3.26,29.28,40.03,1
351241,-0.07,0.06,-1.02,-0.85,-1.38,0.23,3.32,29.24,39.9,1
351251,-0.07,0.06,-1.02,-1.39,-1.71,0.2,3.32,29.24,39.9,1
351261,-0.07,0.06,-1.02,-1.74,-2.02,0.16,3.32,29.24,39.9,1
351273,-0.07,0.06,-1.02,-1.75,-2.56,0.07,3.32,29.24,39.9,1
351283,-0.07,0.06,-1.02,-1.72,-2.75,0.01,3.32,29.24,39.9,1
351294,-0.07,0.05,-1.01,-1.73,-2.88,-0.02,3.39,29.33,40.01,1
351304,-0.07,0.05,-1.01,-1.78,-2.95,0.03,3.39,29.33,40.01,1
351316,-0.07,0.05,-1.01,-0.41,-2.57,0.07,3.39,29.33,40.01,1
351326,-0.07,0.05,-1.01,0.99,-2.23,0.02,3.39,29.33,40.01,1
351336,-0.07,0.05,-1.0,2.02,-1.78,0.03,3.39,29.33,40.01,1
351347,-0.07,0.05,-1.0,2.34,-1.43,0.13,3.63,29.43,40.07,1
351358,-0.07,0.05,-1.0,1.32,-1.15,0.38,3.63,29.43,40.07,1
351370,-0.07,0.05,-1.01,0.78,-1.26,0.47,3.63,29.43,40.07,1
351383,-0.07,0.05,-1.01,1.3,-1.43,0.45,3.63,29.43,40.07,1
351395,-0.07,0.05,-1.01,2.06,-1.28,0.31,3.62,29.55,40.03,1
351405,-0.07,0.05,-1.01,2.67,-1.03,0.15,3.62,29.55,40.03,1
351415,-0.07,0.05,-1.01,2.84,-0.85,0.03,3.62,29.55,40.03,1
351426,-0.07,0.05,-1.01,2.71,-0.8,0.06,3.62,29.55,40.03,1
351437,-0.07,0.05,-1.01,2.7,-0.86,0.06,3.62,29.55,40.03,1
351448,-0.07,0.05,-1.01,2.75,-0.94,0.11,3.57,29.57,39.96,1
351458,-0.07,0.06,-1.01,2.86,-1.02,0.09,3.57,29.57,39.96,1
351469,-0.07,0.05,-1.01,3.03,-0.98,0.01,3.57,29.57,39.96,1
351480,-0.07,0.06,-1.01,2.95,-0.9,0.04,3.57,29.57,39.96,1
351490,-0.07,0.05,-1.01,2.73,-0.86,0.04,3.62,29.52,40.01,1
351503,-0.07,0.05,-1.01,2.17,-0.99,0.08,3.62,29.52,40.01,1
351514,-0.07,0.05,-1.01,2.04,-1.08,0.05,3.62,29.52,40.01,1
351526,-0.07,0.05,-1.01,2.21,-1.12,0.07,3.62,29.52,40.01,1
351536,-0.07,0.05,-1.01,2.59,-1.06,0.05,3.62,29.52,40.01,1
351548,-0.07,0.06,-1.01,3.13,-0.8,0.06,3.61,29.5,40.17,1
351560,-0.07,0.06,-1.01,2.91,-0.79,0.02,3.61,29.5,40.17,1
351574,-0.07,0.05,-1.01,1.98,-1.03,0.03,3.61,29.5,40.17,1
351584,-0.07,0.05,-1.01,1.68,-1.11,0.12,3.61,29.5,40.17,1
351595,-0.07,0.05,-1.01,1.74,-1.05,0.19,3.54,29.47,40.21,1
351608,-0.07,0.05,-1.01,2.6,-0.72,0.25,3.54,29.47,40.21,1
351620,-0.07,0.06,-1.01,2.86,-0.56,0.29,3.54,29.47,40.21,1
351630,-0.07,0.06,-1.01,2.92,-0.54,0.35,3.54,29.47,40.21,1
351643,-0.07,0.06,-1.02,2.31,-0.75,0.35,3.67,29.5,40.17,1
351653,-0.07,0.06,-1.02,1.89,-1.0,0.32,3.67,29.5,40.17,1
351663,-0.07,0.06,-1.02,1.42,-1.25,0.23,3.67,29.5,40.17,1
351673,-0.07,0.06,-1.02,0.95,-1.54,0.18,3.67,29.5,40.17,1
351685,-0.07,0.06,-1.01,0.37,-2.01,0.11,3.67,29.5,40.17,1
351695,-0.07,0.06,-1.01,0.45,-2.11,0.03,3.69,29.54,40.09,1
351706,-0.07,0.06,-1.01,0.82,-2.07,-0.02,3.69,29.54,40.09,1
351716,-0.07,0.06,-1.01,1.33,-1.93,-0.15,3.69,29.54,40.09,1
351728,-0.07,0.06,-1.0,1.89,-1.55,-0.13,3.69,29.54,40.09,1
351739,-0.07,0.06,-1.0,1.78,-1.42,-0.07,3.83,29.53,40.02,1
351749,-0.07,0.05,-1.0,1.56,-1.34,-0.0,3.83,29.53,40.02,1
351759,-0.07,0.05,-1.0,1.38,-1.2,0.05,3.83,29.53,40.02,1
351771,-0.07,0.05,-1.01,1.5,-0.87,0.09,3.83,29.53,40.02,1
351782,-0.07,0.06,-1.01,1.74,-0.72,0.1,3.83,29.53,40.02,1
351793,-0.07,0.06,-1.01,1.86,-0.64,0.09,3.81,29.51,40.03,1
351805,-0.07,0.06,-1.02,1.81,-0.73,0.16,3.81,29.51,40.03,1
351817,-0.07,0.06,-1.02,1.94,-0.92,0.14,3.81,29.51,40.03,1
351827,-0.07,0.06,-1.02,2.06,-1.15,0.04,3.81,29.51,40.03,1
351839,-0.07,0.06,-1.02,1.85,-1.59,-0.07,3.86,29.46,40.1,1
351849,-0.07,0.05,-1.02,1.78,-1.75,-0.04,3.86,29.46,40.1,1
351859,-0.07,0.05,-1.01,1.94,-1.83,-0.06,3.86,29.46,40.1,1
351869,-0.07,0.05,-1.01,2.3,-1.85,-0.1,3.86,29.46,40.1,1
351879,-0.07,0.06,-1.01,2.66,-1.79,-0.13,3.86,29.46,40.1,1
351892,-0.07,0.06,-1.0,2.58,-1.53,-0.15,3.91,29.49,40.06,1
351902,-0.07,0.06,-1.0,2.28,-1.49,-0.1,3.91,29.49,40.06,1
351912,-0.07,0.06,-1.01,1.93,-1.55,-0.11,3.91,29.49,40.06,1
351925,-0.07,0.06,-1.01,1.61,-1.99,-0.21,3.91,29.49,40.06,1
351938,-0.07,0.06,-1.01,1.7,-2.14,-0.26,3.86,29.54,40.11,1
351952,-0.07,0.06,-1.01,2.2,-2.08,-0.47,3.86,29.54,40.11,1
351963,-0.07,0.06,-1.01,2.34,-1.97,-0.54,3.86,29.54,40.11,1
351977,-0.07,0.06,-1.01,2.11,-1.96,-0.52,3.86,29.54,40.11,1
351988,-0.07,0.06,-1.01,1.98,-2.05,-0.58,3.97,29.51,39.9,1
352001,-0.07,0.06,-1.01,1.85,-2.12,-0.74,3.97,29.51,39.9,1
352012,-0.07,0.06,-1.01,1.94,-1.99,-0.76,3.97,29.51,39.9,1
352024,-0.07,0.06,-1.01,2.1,-1.86,-0.73,3.97,29.51,39.9,1
352034,-0.07,0.06,-1.01,2.2,-1.76,-0.72,3.97,29.51,39.9,1
352047,-0.07,0.05,-1.0,2.14,-1.51,-0.62,3.88,29.47,39.82,1
352057,-0.07,0.05,-1.01,2.05,-1.35,-0.58,3.88,29.47,39.82,1
352067,-0.07,0.05,-1.01,1.95,-1.2,-0.51,3.88,29.47,39.82,1
352077,-0.07,0.05,-1.01,1.92,-1.14,-0.41,3.88,29.47,39.82,1
352090,-0.07,0.05,-1.01,2.06,-0.94,-0.14,3.84,29.44,39.88,1
352100,-0.07,0.05,-1.01,2.24,-0.83,-0.01,3.84,29.44,39.88,1
352110,-0.07,0.05,-1.01,2.31,-0.71,0.06,3.84,29.44,39.88,1
352120,-0.07,0.05,-1.01,2.21,-0.75,0.12,3.84,29.44,39.88,1
352132,-0.07,0.05,-1.01,1.73,-1.02,0.28,3.84,29.44,39.88,1
352143,-0.07,0.05,-1.01,1.69,-1.13,0.34,3.83,29.44,39.81,1
352153,-0.07,0.05,-1.01,1.84,-1.19,0.4,3.83,29.44,39.81,1
352163,-0.07,0.05,-1.01,2.13,-1.17,0.38,3.83,29.44,39.81,1
352175,-0.07,0.06,-1.01,2.59,-1.12,0.41,3.83,29.44,39.81,1
352185,-0.07,0.06,-1.01,2.46,-1.13,0.43,3.83,29.44,39.81,1
352196,-0.07,0.06,-1.01,2.23,-1.15,0.48,3.73,29.42,39.64,1
352206,-0.07,0.06,-1.01,2.13,-1.18,0.55,3.73,29.42,39.64,1
352218,-0.07,0.06,-1.0,2.42,-1.08,0.43,3.73,29.42,39.64,1
352228,-0.07,0.06,-1.0,2.55,-0.94,0.39,3.73,29.42,39.64,1
352239,-0.07,0.06,-1.0,2.35,-0.87,0.36,3.76,29.32,39.71,1
352249,-0.07,0.06,-1.0,1.86,-0.81,0.39,3.76,29.32,39.71,1
352261,-0.07,0.06,-1.01,0.99,-0.77,0.43,3.76,29.32,39.71,1
352271,-0.07,0.06,-1.01,1.07,-0.74,0.41,3.76,29.32,39.71,1
352281,-0.07,0.06,-1.01,1.51,-0.58,0.38,3.76,29.32,39.71,1
352291,-0.07,0.06,-1.01,1.94,-0.39,0.34,3.75,29.33,39.66,1
352303,-0.07,0.07,-1.02,2.05,-0.33,0.2,3.75,29.33,39.66,1
352315,-0.07,0.07,-1.02,1.77,-0.47,0.09,3.75,29.33,39.66,1
352329,-0.07,0.07,-1.02,1.64,-1.02,-0.3,3.75,29.33,39.66,1
352340,-0.07,0.06,-1.02,1.88,-1.25,-0.48,3.66,29.36,39.7,1
352351,-0.07,0.06,-1.02,2.15,-1.45,-0.63,3.66,29.36,39.7,1
352363,-0.07,0.06,-1.01,2.32,-1.7,-0.81,3.66,29.36,39.7,1
352375,-0.07,0.06,-1.01,2.15,-1.77,-0.83,3.66,29.36,39.7,1
352390,-0.07,0.05,-1.0,1.65,-1.78,-0.8,3.59,29.4,39.82,1
352400,-0.07,0.05,-1.0,1.54,-1.7,-0.72,3.59,29.4,39.82,1
352410,-0.07,0.05,-1.0,1.53,-1.48,-0.63,3.59,29.4,39.82,1
352420,-0.07,0.05,-1.0,1.63,-1.26,-0.49,3.59,29.4,39.82,1
352431,-0.07,0.05,-1.0,1.87,-0.83,-0.2,3.59,29.4,39.82,1
352443,-0.07,0.05,-1.01,1.87,-0.75,-0.05,3.52,29.4,39.67,1
352453,-0.07,0.05,-1.01,1.85,-0.68,0.11,3.52,29.4,39.67,1
352463,-0.07,0.05,-1.02,1.83,-0.65,0.21,3.52,29.4,39.67,1
352475,-0.07,0.06,-1.02,1.93,-0.97,0.3,3.52,29.4,39.67,1
352485,-0.07,0.06,-1.02,2.0,-1.19,0.28,3.52,29.4,39.67,1
352496,-0.07,0.06,-1.02,2.0,-1.36,0.28,3.56,29.32,39.78,1
352506,-0.07,0.06,-1.02,1.94,-1.54,0.29,3.56,29.32,39.78,1
352518,-0.07,0.06,-1.01,1.86,-1.7,0.29,3.56,29.32,39.78,1
352528,-0.07,0.06,-1.01,2.06,-1.66,0.25,3.56,29.32,39.78,1
352539,-0.07,0.06,-1.01,2.29,-1.65,0.2,3.53,29.31,39.71,1
352549,-0.07,0.06,-1.0,2.35,-1.58,0.17,3.53,29.31,39.71,1
352561,-0.07,0.06,-1.0,1.97,-1.34,0.15,3.53,29.31,39.71,1
352571,-0.07,0.06,-1.0,1.83,-1.28,0.18,3.53,29.31,39.71,1
352581,-0.07,0.06,-1.01,1.82,-1.18,0.14,3.53,29.31,39.71,1
352592,-0.07,0.06,-1.01,1.86,-1.08,0.11,3.54,29.32,39.63,1
352604,-0.07,0.06,-1.01,1.94,-1.0,0.09,3.54,29.32,39.63,1
352614,-0.07,0.06,-1.01,1.88,-1.0,0.02,3.54,29.32,39.63,1
352624,-0.07,0.06,-1.01,1.73,-1.02,-0.03,3.54,29.32,39.63,1
352634,-0.07,0.06,-1.01,1.61,-1.09,-0.1,3.54,29.32,39.63,1
352647,-0.07,0.06,-1.01,1.62,-1.22,-0.3,3.46,29.49,39.81,1
352657,-0.07,0.06,-1.01,1.82,-1.18,-0.32,3.46,29.49,39.81,1
352667,-0.07,0.06,-1.01,2.03,-1.13,-0.31,3.46,29.49,39.81,1
352677,-0.07,0.06,-1.01,2.19,-1.11,-0.28,3.46,29.49,39.81,1
352688,-0.07,0.06,-1.01,2.18,-1.19,-0.3,3.42,29.54,39.98,1
352699,-0.07,0.06,-1.01,2.05,-1.22,-0.34,3.42,29.54,39.98,1
352710,-0.07,0.05,-1.01,1.95,-1.17,-0.32,3.42,29.54,39.98,1
352721,-0.07,0.05,-1.01,1.96,-1.07,-0.21,3.42,29.54,39.98,1
352733,-0.07,0.05,-1.01,2.08,-0.9,-0.05,3.42,29.54,39.98,1
352744,-0.07,0.05,-1.01,2.12,-0.87,0.02,3.5,29.46,39.96,1
352754,-0.07,0.06,-1.01,2.08,-0.77,0.12,3.5,29.46,39.96,1
352764,-0.07,0.06,-1.01,1.94,-0.68,0.23,3.5,29.46,39.96,1
352776,-0.07,0.06,-1.01,1.66,-0.89,0.45,3.5,29.46,39.96,1
352786,-0.07,0.06,-1.01,1.63,-1.0,0.46,3.5,29.46,39.96,1
352797,-0.07,0.06,-1.01,1.74,-1.09,0.37,3.57,29.53,39.8,1
352807,-0.07,0.06,-1.01,1.84,-1.19,0.24,3.57,29.53,39.8,1
352819,-0.07,0.06,-1.01,1.71,-1.36,0.0,3.57,29.53,39.8,1
352829,-0.07,0.06,-1.01,1.56,-1.45,-0.05,3.57,29.53,39.8,1
352840,-0.07,0.06,-1.01,1.46,-1.48,-0.05,3.67,29.53,39.68,1
352850,-0.07,0.06,-1.01,1.54,-1.44,-0.04,3.67,29.53,39.68,1
352862,-0.07,0.06,-1.0,1.93,-1.15,-0.01,3.67,29.53,39.68,1
352872,-0.07,0.06,-1.0,1.96,-1.07,0.02,3.67,29.53,39.68,1
352882,-0.07,0.06,-1.0,1.85,-0.98,0.05,3.67,29.53,39.68,1
352893,-0.07,0.06,-1.0,1.7,-0.96,0.08,3.71,29.66,39.69,1
352905,-0.07,0.06,-1.01,1.5,-0.84,0.01,3.71,29.66,39.69,1
352916,-0.07,0.06,-1.01,1.65,-0.77,-0.05,3.71,29.66,39.69,1
352930,-0.07,0.06,-1.01,2.14,-0.74,-0.09,3.71,29.66,39.69,1
352941,-0.07,0.06,-1.01,2.22,-0.83,-0.12,3.6,29.67,39.71,1
352953,-0.07,0.06,-1.01,2.14,-0.96,-0.24,3.6,29.67,39.71,1
352965,-0.07,0.06,-1.01,1.45,-1.1,-0.5,3.6,29.67,39.71,1
352975,-0.07,0.06,-1.01,1.13,-1.14,-0.51,3.6,29.67,39.71,1
352985,-0.07,0.06,-1.01,1.04,-1.19,-0.45,3.6,29.67,39.71,1
352996,-0.07,0.06,-1.01,1.3,-1.14,-0.41,3.62,29.62,39.72,1
353008,-0.07,0.06,-1.01,2.1,-1.01,-0.31,3.62,29.62,39.72,1
353018,-0.07,0.06,-1.01,2.2,-1.0,-0.24,3.62,29.62,39.72,1
353028,-0.07,0.06,-1.01,2.02,-1.06,-0.17,3.62,29.62,39.72,1
353039,-0.07,0.06,-1.01,1.83,-1.13,-0.12,3.48,29.73,39.89,1
353051,-0.07,0.06,-1.01,1.72,-1.33,-0.16,3.48,29.73,39.89,1
353061,-0.07,0.06,-1.01,1.76,-1.37,-0.22,3.48,29.73,39.89,1
353071,-0.07,0.06,-1.01,1.76,-1.46,-0.29,3.48,29.73,39.89,1
353081,-0.07,0.06,-1.01,1.71,-1.52,-0.29,3.48,29.73,39.89,1
353093,-0.07,0.06,-1.0,1.81,-1.39,-0.27,3.43,29.69,40.09,1
353104,-0.07,0.06,-1.0,2.06,-1.22,-0.25,3.43,29.69,40.09,1
353114,-0.07,0.06,-1.0,2.26,-1.02,-0.2,3.43,29.69,40.09,1
353124,-0.07,0.06,-1.01,2.32,-0.85,-0.1,3.43,29.69,40.09,1
353135,-0.07,0.06,-1.01,2.12,-0.69,0.08,3.43,29.69,40.09,1
353147,-0.07,0.06,-1.01,2.03,-0.74,0.09,3.45,29.71,39.84,1
353158,-0.07,0.06,-1.01,1.97,-0.83,0.03,3.45,29.71,39.84,1
353169,-0.07,0.06,-1.01,1.67,-1.16,-0.16,3.45,29.71,39.84,1
353180,-0.07,0.06,-1.01,1.52,-1.32,-0.22,3.45,29.71,39.84,1
353191,-0.07,0.06,-1.01,1.51,-1.49,-0.22,3.39,29.6,39.74,1
353205,-0.07,0.06,-1.01,1.97,-1.45,-0.32,3.39,29.6,39.74,1
353215,-0.07,0.06,-1.01,2.26,-1.39,-0.36,3.39,29.6,39.74,1
353226,-0.07,0.06,-1.01,2.36,-1.35,-0.41,3.39,29.6,39.74,1
353238,-0.07,0.06,-1.01,2.01,-1.26,-0.36,3.5,29.63,39.5,1
353249,-0.07,0.06,-1.01,1.84,-1.24,-0.27,3.5,29.63,39.5,1
353259,-0.07,0.06,-1.01,1.74,-1.17,-0.24,3.5,29.63,39.5,1
353269,-0.07,0.06,-1.01,1.71,-1.18,-0.25,3.5,29.63,39.5,1
353279,-0.07,0.06,-1.01,1.63,-1.17,-0.25,3.5,29.63,39.5,1
353292,-0.07,0.06,-1.01,1.3,-1.17,-0.26,3.41,29.66,39.67,1
353302,-0.07,0.05,-1.01,1.19,-1.22,-0.21,3.41,29.66,39.67,1
353312,-0.07,0.05,-1.01,1.18,-1.22,-0.17,3.41,29.66,39.67,1
353322,-0.07,0.06,-1.01,1.33,-1.25,-0.08,3.41,29.66,39.67,1
353334,-0.07,0.06,-1.01,1.8,-1.28,0.01,3.41,29.66,39.67,1
353344,-0.07,0.06,-1.01,2.04,-1.28,0.01,3.47,29.7,39.59,1
353356,-0.07,0.06,-1.01,2.18,-1.34,-0.01,3.47,29.7,39.59,1
353368,-0.07,0.06,-1.01,2.16,-1.42,0.02,3.47,29.7,39.59,1
353380,-0.07,0.06,-1.01,2.07,-1.41,0.04,3.47,29.7,39.59,1
353391,-0.07,0.06,-1.01,2.06,-1.35,0.06,3.43,29.63,39.56,1
353403,-0.07,0.06,-1.01,2.17,-1.22,0.06,3.43,29.63,39.56,1
353414,-0.07,0.06,-1.01,2.07,-1.2,0.06,3.43,29.63,39.56,1
353428,-0.07,0.06,-1.01,1.62,-1.28,0.16,3.43,29.63,39.56,1
353439,-0.07,0.06,-1.01,1.48,-1.26,0.16,3.37,29.63,39.64,1
353449,-0.07,0.06,-1.01,1.57,-1.25,0.21,3.37,29.63,39.64,1
353459,-0.07,0.06,-1.01,1.81,-1.22,0.23,3.37,29.63,39.64,1
353470,-0.07,0.06,-1.01,2.28,-1.15,0.17,3.37,29.63,39.64,1
353481,-0.07,0.06,-1.01,2.33,-1.19,0.14,3.37,29.63,39.64,1
353491,-0.07,0.06,-1.01,2.32,-1.3,0.08,3.43,29.71,39.66,1
353504,-0.07,0.06,-1.01,2.11,-1.49,-0.05,3.43,29.71,39.66,1
353515,-0.07,0.06,-1.01,1.99,-1.56,-0.04,3.43,29.71,39.66,1
353527,-0.07,0.06,-1.01,1.96,-1.66,-0.06,3.43,29.71,39.66,1
353540,-0.07,0.06,-1.01,1.78,-1.73,-0.04,3.46,29.65,39.64,1
353550,-0.07,0.06,-1.01,1.66,-1.68,-0.01,3.46,29.65,39.64,1
353560,-0.07,0.06,-1.0,1.48,-1.58,0.01,3.46,29.65,39.64,1
353570,-0.07,0.06,-1.0,1.29,-1.53,0.02,3.46,29.65,39.64,1
353580,-0.07,0.06,-1.0,1.21,-1.49,0.03,3.46,29.65,39.64,1
353593,-0.07,0.06,-1.0,1.6,-1.29,0.07,3.44,29.69,39.77,1
353604,-0.07,0.06,-1.0,1.8,-1.11,0.09,3.44,29.69,39.77,1
353618,-0.07,0.06,-1.01,1.59,-0.91,0.12,3.44,29.69,39.77,1
353629,-0.07,0.06,-1.01,1.37,-0.84,0.14,3.44,29.69,39.77,1
353641,-0.07,0.06,-1.01,1.15,-0.88,0.04,3.37,29.69,39.64,1
353652,-0.07,0.06,-1.02,1.19,-1.0,-0.09,3.37,29.69,39.64,1
353664,-0.07,0.06,-1.02,1.32,-1.11,-0.22,3.37,29.69,39.64,1
353678,-0.07,0.06,-1.02,1.54,-1.42,-0.38,3.37,29.69,39.64,1
353689,-0.07,0.06,-1.01,1.55,-1.56,-0.4,3.43,29.6,39.84,1
353699,-0.07,0.06,-1.01,1.55,-1.69,-0.42,3.43,29.6,39.84,1
353709,-0.07,0.06,-1.01,1.53,-1.73,-0.48,3.43,29.6,39.84,1
353721,-0.07,0.06,-1.01,1.51,-1.76,-0.47,3.43,29.6,39.84,1
353731,-0.07,0.06,-1.01,1.54,-1.79,-0.47,3.43,29.6,39.84,1
353742,-0.07,0.06,-1.0,1.58,-1.73,-0.45,3.42,29.55,39.88,1
353753,-0.07,0.06,-1.0,1.67,-1.47,-0.38,3.42,29.55,39.88,1
353764,-0.07,0.05,-1.0,1.64,-1.32,-0.39,3.42,29.55,39.88,1
