time,acc_x,acc_y,acc_z,gyro_x,gyro_y,gyro_z,mag_x,mag_y,mag_z,label
14196,0.05,-0.01,-0.79,0.58,-0.8,-1.08,5.28,-1.27,7.97,1
14207,0.06,-0.01,-0.84,0.64,-0.7,-1.25,5.28,-1.27,7.97,1
14218,0.06,-0.01,-0.88,0.58,-0.46,-1.38,5.28,-1.27,7.97,1
14230,0.06,-0.01,-0.93,0.36,-0.5,-1.43,5.28,-1.27,7.97,1
14241,0.06,-0.01,-0.95,-0.0,-0.66,-1.56,9.5,-2.26,14.26,1
14255,0.06,-0.01,-0.97,-0.47,-0.78,-1.75,9.5,-2.26,14.26,1
14267,0.06,-0.02,-0.98,-0.23,-0.7,-1.72,9.5,-2.26,14.26,1
14277,0.06,-0.02,-0.99,0.21,-0.68,-1.6,9.5,-2.26,14.26,1
14289,0.06,-0.02,-0.99,1.08,-0.74,-1.19,12.73,-3.07,19.11,1
14301,0.06,-0.02,-1.0,1.48,-0.67,-1.04,12.73,-3.07,19.11,1
14313,0.06,-0.02,-1.0,2.2,-0.43,-0.82,12.73,-3.07,19.11,1
14325,0.06,-0.01,-1.0,2.54,-0.43,-0.65,12.73,-3.07,19.11,1
14335,0.06,-0.01,-1.0,2.65,-0.54,-0.55,12.73,-3.07,19.11,1
14346,0.06,-0.01,-1.0,2.35,-0.7,-0.52,15.3,-3.75,23.25,1
14358,0.07,-0.01,-1.01,1.05,-1.21,-0.76,15.3,-3.75,23.25,1
14370,0.07,-0.01,-1.01,0.54,-1.4,-1.03,15.3,-3.75,23.25,1
14380,0.07,-0.01,-1.01,0.3,-1.37,-1.25,15.3,-3.75,23.25,1
14393,0.07,-0.01,-1.01,0.59,-1.18,-1.32,17.29,-4.3,26.44,1
14404,0.06,-0.01,-1.01,0.9,-1.08,-1.12,17.29,-4.3,26.44,1
14415,0.06,-0.01,-1.01,1.2,-0.95,-0.89,17.29,-4.3,26.44,1
14427,0.07,-0.01,-1.01,1.89,-0.69,-0.47,17.29,-4.3,26.44,1
14438,0.07,-0.01,-1.01,2.32,-0.57,-0.26,18.76,-4.78,28.88,1
14451,0.06,-0.01,-1.01,2.29,-0.75,0.14,18.76,-4.78,28.88,1
14462,0.06,-0.01,-1.01,1.5,-1.1,0.05,18.76,-4.78,28.88,1
14473,0.07,-0.01,-1.01,0.74,-1.43,-0.12,18.76,-4.78,28.88,1
14484,0.07,-0.01,-1.01,0.42,-1.55,-0.31,18.76,-4.78,28.88,1
14497,0.07,-0.02,-1.01,1.42,-1.11,-0.19,20.06,-5.13,30.55,1
14508,0.07,-0.02,-1.01,2.32,-0.8,0.08,20.06,-5.13,30.55,1
14521,0.06,-0.01,-1.01,3.17,-0.6,0.5,20.06,-5.13,30.55,1
14531,0.06,-0.01,-1.01,2.62,-0.68,0.38,20.06,-5.13,30.55,1
14542,0.06,-0.01,-1.01,1.85,-0.77,0.09,20.94,-5.36,32.03,1
14552,0.07,-0.01,-1.01,1.35,-0.85,-0.2,20.94,-5.36,32.03,1
14564,0.07,-0.01,-1.01,1.57,-0.81,-0.11,20.94,-5.36,32.03,1
14575,0.07,-0.01,-1.01,1.85,-0.9,0.0,20.94,-5.36,32.03,1
14586,0.06,-0.01,-1.01,1.91,-1.08,0.0,20.94,-5.36,32.03,1
14599,0.06,-0.01,-1.01,1.4,-1.4,-0.06,21.71,-5.45,33.13,1
14610,0.06,-0.01,-1.01,1.13,-1.42,-0.06,21.71,-5.45,33.13,1
14621,0.06,-0.01,-1.01,1.0,-1.41,0.05,21.71,-5.45,33.13,1
14633,0.06,-0.02,-1.02,0.88,-1.41,0.2,21.71,-5.45,33.13,1
14644,0.07,-0.02,-1.02,0.93,-1.53,0.14,22.29,-5.53,34.0,1
14654,0.07,-0.02,-1.02,1.02,-1.66,0.0,22.29,-5.53,34.0,1
14664,0.07,-0.02,-1.02,1.05,-1.71,-0.17,22.29,-5.53,34.0,1
14676,0.07,-0.02,-1.01,1.17,-1.56,-0.37,22.29,-5.53,34.0,1
14687,0.07,-0.02,-1.01,1.34,-1.39,-0.45,22.65,-5.55,34.75,1
14700,0.07,-0.02,-1.01,1.89,-1.1,-0.3,22.65,-5.55,34.75,1
14711,0.07,-0.02,-1.01,2.13,-0.92,-0.22,22.65,-5.55,34.75,1
14723,0.07,-0.02,-1.01,2.24,-0.77,-0.13,22.65,-5.55,34.75,1
14734,0.07,-0.02,-1.01,1.91,-0.62,-0.3,22.65,-5.55,34.75,1
14746,0.07,-0.01,-1.01,1.37,-0.69,-0.6,22.97,-5.62,35.44,1
14758,0.07,-0.01,-1.01,0.82,-0.75,-0.87,22.97,-5.62,35.44,1
14770,0.07,-0.02,-1.01,0.63,-0.84,-1.03,22.97,-5.62,35.44,1
14782,0.07,-0.02,-1.01,1.06,-0.76,-0.89,22.97,-5.62,35.44,1
14794,0.06,-0.02,-1.01,1.98,-0.57,-0.54,23.24,-5.58,35.98,1
14805,0.06,-0.01,-1.01,2.03,-0.49,-0.5,23.24,-5.58,35.98,1
14817,0.06,-0.01,-1.01,1.74,-0.5,-0.55,23.24,-5.58,35.98,1
14831,0.06,-0.01,-1.01,1.09,-0.71,-0.74,23.24,-5.58,35.98,1
14842,0.06,-0.02,-1.01,1.04,-0.74,-0.71,23.47,-5.65,36.27,1
14856,0.06,-0.01,-1.01,1.66,-0.86,-0.19,23.47,-5.65,36.27,1
14868,0.06,-0.01,-1.01,2.07,-0.91,0.06,23.47,-5.65,36.27,1
14878,0.06,-0.01,-1.01,2.37,-0.94,0.29,23.47,-5.65,36.27,1
14891,0.06,-0.02,-1.01,2.77,-0.85,0.49,23.62,-5.69,36.87,1
14902,0.06,-0.01,-1.01,2.88,-0.77,0.54,23.62,-5.69,36.87,1
14916,0.06,-0.01,-1.01,2.7,-0.69,0.47,23.62,-5.69,36.87,1
14928,0.06,-0.02,-1.01,2.55,-0.74,0.38,23.62,-5.69,36.87,1
14939,0.07,-0.02,-1.01,2.44,-0.79,0.3,23.71,-5.76,36.96,1
14951,0.07,-0.02,-1.01,2.54,-0.96,0.16,23.71,-5.76,36.96,1
14961,0.06,-0.02,-1.01,2.53,-1.0,0.1,23.71,-5.76,36.96,1
14971,0.07,-0.02,-1.01,2.58,-1.06,0.07,23.71,-5.76,36.96,1
14981,0.06,-0.01,-1.01,2.58,-1.04,0.03,23.71,-5.76,36.96,1
14994,0.06,-0.02,-1.01,2.44,-1.04,-0.06,23.87,-5.86,37.06,1
15006,0.06,-0.01,-1.01,2.25,-1.16,-0.08,23.87,-5.86,37.06,1
15019,0.06,-0.01,-1.01,2.27,-1.29,-0.11,23.87,-5.86,37.06,1
15031,0.06,-0.01,-1.01,2.4,-1.24,-0.07,23.87,-5.86,37.06,1
15043,0.07,-0.01,-1.01,2.57,-1.18,-0.06,23.94,-5.95,37.0,1
15054,0.07,-0.01,-1.01,2.67,-1.15,-0.05,23.94,-5.95,37.0,1
15066,0.06,-0.01,-1.01,2.8,-1.1,0.02,23.94,-5.95,37.0,1
15080,0.07,-0.01,-1.01,2.72,-1.19,0.26,23.94,-5.95,37.0,1
15091,0.07,-0.01,-1.01,2.31,-1.31,0.25,24.1,-5.91,37.13,1
15103,0.07,-0.01,-1.01,1.79,-1.38,0.05,24.1,-5.91,37.13,1
15114,0.07,-0.01,-1.01,1.97,-1.25,0.01,24.1,-5.91,37.13,1
15125,0.07,-0.01,-1.01,2.33,-1.07,0.12,24.1,-5.91,37.13,1
15135,0.06,-0.01,-1.01,2.75,-0.92,0.35,24.1,-5.91,37.13,1
15148,0.06,-0.01,-1.01,2.85,-1.04,0.69,24.04,-5.93,37.24,1
15158,0.06,-0.01,-1.01,2.26,-1.23,0.58,24.04,-5.93,37.24,1
15168,0.07,-0.01,-1.01,1.58,-1.47,0.38,24.04,-5.93,37.24,1
15180,0.07,-0.01,-1.02,1.13,-1.56,0.08,24.04,-5.93,37.24,1
15192,0.07,-0.01,-1.02,1.46,-1.45,0.15,23.97,-5.92,37.14,1
15203,0.07,-0.01,-1.02,1.93,-1.28,0.3,23.97,-5.92,37.14,1
15213,0.06,-0.01,-1.01,2.27,-1.12,0.37,23.97,-5.92,37.14,1
15224,0.06,-0.01,-1.01,1.89,-0.98,0.24,23.97,-5.92,37.14,1
15236,0.06,-0.01,-1.01,1.34,-0.96,0.01,24.01,-5.99,37.44,1
15248,0.06,-0.01,-1.01,1.04,-0.94,-0.19,24.01,-5.99,37.44,1
15260,0.07,-0.02,-1.01,1.76,-0.65,-0.1,24.01,-5.99,37.44,1
15271,0.07,-0.02,-1.01,2.5,-0.59,0.13,24.01,-5.99,37.44,1
15286,0.06,-0.01,-1.01,3.13,-0.88,0.51,23.98,-6.03,37.32,1
15298,0.06,-0.01,-1.01,2.77,-0.97,0.32,23.98,-6.03,37.32,1
15311,0.07,-0.01,-1.02,2.09,-0.81,-0.25,23.98,-6.03,37.32,1
15322,0.07,-0.01,-1.02,2.38,-0.58,-0.28,23.98,-6.03,37.32,1
15333,0.07,-0.01,-1.02,3.03,-0.34,-0.11,23.98,-6.03,37.32,1
15346,0.07,-0.01,-1.01,4.29,-0.13,0.3,24.07,-6.11,37.23,1
15358,0.07,-0.0,-1.01,4.15,-0.29,0.3,24.07,-6.11,37.23,1
15369,0.06,-0.0,-1.01,2.47,-0.84,-0.13,24.07,-6.11,37.23,1
15380,0.07,-0.0,-1.01,1.6,-1.08,-0.37,24.07,-6.11,37.23,1
15392,0.07,-0.0,-1.01,1.2,-1.25,-0.54,24.15,-6.23,37.1,1
15402,0.06,-0.01,-1.01,1.32,-1.21,-0.5,24.15,-6.23,37.1,1
15414,0.06,-0.01,-1.01,2.05,-0.98,-0.09,24.15,-6.23,37.1,1
15426,0.06,-0.0,-1.01,2.04,-1.05,-0.01,24.15,-6.23,37.1,1
15437,0.06,-0.0,-1.01,1.82,-1.09,-0.01,24.17,-6.33,37.31,1
15449,0.06,-0.01,-1.01,1.67,-0.71,0.06,24.17,-6.33,37.31,1
15461,0.06,-0.01,-1.01,1.95,-0.43,0.15,24.17,-6.33,37.31,1
15474,0.06,-0.01,-1.01,2.59,-0.21,0.35,24.17,-6.33,37.31,1
15486,0.06,-0.01,-1.01,2.48,-0.38,0.35,24.2,-6.48,37.23,1
15496,0.06,-0.01,-1.01,2.0,-0.73,0.37,24.2,-6.48,37.23,1
15507,0.06,-0.0,-1.01,0.78,-1.32,0.14,24.2,-6.48,37.23,1
15518,0.06,-0.01,-1.01,0.38,-1.43,-0.02,24.2,-6.48,37.23,1
15530,0.06,-0.01,-1.01,0.36,-1.41,-0.13,24.2,-6.48,37.23,1
15543,0.06,-0.01,-1.01,0.98,-1.3,-0.03,24.32,-6.42,37.28,1
15554,0.06,-0.01,-1.01,0.93,-1.35,-0.1,24.32,-6.42,37.28,1
15565,0.06,-0.01,-1.01,0.51,-1.43,-0.29,24.32,-6.42,37.28,1
15576,0.06,-0.01,-1.01,-0.12,-1.53,-0.72,24.32,-6.42,37.28,1
15588,0.06,-0.01,-1.01,-0.08,-1.46,-0.79,24.32,-6.32,37.34,1
15600,0.06,-0.01,-1.01,0.19,-1.43,-0.75,24.32,-6.32,37.34,1
15612,0.06,-0.01,-1.01,1.05,-1.42,-0.64,24.32,-6.32,37.34,1
15624,0.06,-0.01,-1.01,1.56,-1.28,-0.56,24.32,-6.32,37.34,1
15638,0.06,-0.01,-1.01,2.51,-0.87,-0.22,24.31,-6.3,37.14,1
15649,0.06,-0.01,-1.01,2.79,-0.79,-0.02,24.31,-6.3,37.14,1
15661,0.06,-0.01,-1.01,2.62,-0.8,0.12,24.31,-6.3,37.14,1
15672,0.06,-0.01,-1.01,2.47,-0.88,0.05,24.31,-6.3,37.14,1
15685,0.06,-0.01,-1.01,2.44,-0.87,0.01,24.32,-6.32,36.95,1
15697,0.06,-0.01,-1.01,2.33,-1.01,0.15,24.32,-6.32,36.95,1
15709,0.06,-0.01,-1.01,2.07,-1.11,0.12,24.32,-6.32,36.95,1
15721,0.06,-0.01,-1.01,1.65,-1.27,0.03,24.32,-6.32,36.95,1
15732,0.06,-0.01,-1.01,1.56,-1.24,0.08,24.32,-6.32,36.95,1
15744,0.06,-0.01,-1.01,1.51,-1.21,0.13,24.43,-6.41,36.91,1
15757,0.06,-0.01,-1.01,1.45,-1.25,0.04,24.43,-6.41,36.91,1
15769,0.07,-0.01,-1.01,1.44,-1.26,0.03,24.43,-6.41,36.91,1
15782,0.07,-0.01,-1.01,1.59,-1.3,0.12,24.43,-6.41,36.91,1
15794,0.07,-0.01,-1.01,1.72,-1.26,0.16,24.48,-6.41,36.88,1
15805,0.07,-0.01,-1.01,1.76,-1.22,0.09,24.48,-6.41,36.88,1
15817,0.07,-0.01,-1.01,1.8,-1.01,-0.01,24.48,-6.41,36.88,1
15828,0.07,-0.01,-1.01,1.77,-0.95,0.02,24.48,-6.41,36.88,1
15839,0.07,-0.01,-1.01,1.57,-0.94,-0.0,24.53,-6.37,36.92,1
15852,0.06,-0.01,-1.01,1.0,-1.03,-0.37,24.53,-6.37,36.92,1
15864,0.06,-0.01,-1.01,0.98,-1.02,-0.52,24.53,-6.37,36.92,1
15875,0.06,-0.01,-1.01,1.21,-0.93,-0.48,24.53,-6.37,36.92,1
15888,0.06,-0.01,-1.01,1.75,-0.86,-0.18,24.46,-6.33,37.02,1
15899,0.06,-0.01,-1.01,1.85,-0.94,-0.1,24.46,-6.33,37.02,1
15911,0.06,-0.01,-1.01,1.76,-0.98,-0.25,24.46,-6.33,37.02,1
15922,0.06,-0.01,-1.01,1.83,-0.88,-0.41,24.46,-6.33,37.02,1
15934,0.06,-0.01,-1.02,2.02,-0.77,-0.45,24.44,-6.3,37.09,1
15947,0.06,-0.01,-1.01,2.27,-0.73,-0.37,24.44,-6.3,37.09,1
15957,0.06,-0.01,-1.01,2.14,-0.84,-0.41,24.44,-6.3,37.09,1
15969,0.06,-0.01,-1.01,1.97,-0.92,-0.43,24.44,-6.3,37.09,1
15981,0.06,-0.01,-1.01,1.75,-0.88,-0.43,24.44,-6.3,37.09,1
15992,0.06,-0.01,-1.01,1.62,-0.94,-0.45,24.41,-6.29,37.03,1
16005,0.06,-0.01,-1.01,1.61,-1.05,-0.5,24.41,-6.29,37.03,1
16016,0.06,-0.01,-1.01,1.8,-1.06,-0.46,24.41,-6.29,37.03,1
16028,0.06,-0.01,-1.01,2.03,-1.08,-0.34,24.41,-6.29,37.03,1
16041,0.06,-0.0,-1.01,2.29,-1.1,-0.08,24.56,-6.29,37.06,1
16053,0.06,-0.01,-1.01,2.2,-1.1,-0.07,24.56,-6.29,37.06,1
16066,0.06,-0.01,-1.01,2.0,-1.09,-0.03,24.56,-6.29,37.06,1
16078,0.06,-0.01,-1.02,2.0,-1.0,0.03,24.56,-6.29,37.06,1
16089,0.07,-0.01,-1.02,2.05,-0.88,0.07,24.5,-6.36,37.06,1
16102,0.06,-0.01,-1.01,1.96,-0.81,0.02,24.5,-6.36,37.06,1
16113,0.06,-0.01,-1.01,1.73,-0.82,-0.05,24.5,-6.36,37.06,1
16124,0.06,-0.01,-1.01,1.48,-0.92,-0.12,24.5,-6.36,37.06,1
16137,0.06,-0.01,-1.01,1.27,-0.99,-0.04,24.49,-6.42,37.04,1
16148,0.06,-0.01,-1.01,1.33,-1.04,0.05,24.49,-6.42,37.04,1
16160,0.06,-0.01,-1.01,1.58,-1.04,0.1,24.49,-6.42,37.04,1
16171,0.06,-0.01,-1.01,1.8,-1.01,0.14,24.49,-6.42,37.04,1
16181,0.06,-0.01,-1.01,2.05,-0.95,0.25,24.49,-6.42,37.04,1
16192,0.06,-0.01,-1.01,2.12,-0.9,0.34,24.38,-6.37,37.11,1
16203,0.06,-0.01,-1.01,1.84,-0.82,0.31,24.38,-6.37,37.11,1
16214,0.06,-0.01,-1.01,1.73,-0.87,0.19,24.38,-6.37,37.11,1
16225,0.06,-0.01,-1.01,1.65,-0.89,0.13,24.38,-6.37,37.11,1
16238,0.06,-0.01,-1.01,1.54,-1.04,0.06,24.43,-6.2,37.31,1
16250,0.06,-0.01,-1.01,1.39,-1.08,-0.01,24.43,-6.2,37.31,1
16263,0.06,-0.01,-1.01,1.17,-1.08,-0.1,24.43,-6.2,37.31,1
16274,0.06,-0.01,-1.01,1.34,-1.11,-0.06,24.43,-6.2,37.31,1
16285,0.06,-0.01,-1.01,1.65,-1.15,0.04,24.34,-6.18,37.42,1
16299,0.06,-0.01,-1.01,2.1,-1.14,0.23,24.34,-6.18,37.42,1
16310,0.06,-0.01,-1.01,2.16,-1.13,0.23,24.34,-6.18,37.42,1
16324,0.06,-0.01,-1.01,2.0,-1.26,0.21,24.34,-6.18,37.42,1
16335,0.06,-0.01,-1.01,1.8,-1.4,0.16,24.22,-6.24,37.41,1
16347,0.06,-0.01,-1.01,1.7,-1.48,0.14,24.22,-6.24,37.41,1
16359,0.06,-0.01,-1.01,1.86,-1.35,0.13,24.22,-6.24,37.41,1
16370,0.06,-0.01,-1.01,2.0,-1.13,0.13,24.22,-6.24,37.41,1
16384,0.06,-0.01,-1.01,2.28,-1.07,0.27,24.33,-6.13,37.49,1
16396,0.06,-0.01,-1.01,2.21,-1.16,0.32,24.33,-6.13,37.49,1
16408,0.06,-0.0,-1.01,1.55,-1.13,0.19,24.33,-6.13,37.49,1
16420,0.06,-0.01,-1.01,1.23,-1.12,0.08,24.33,-6.13,37.49,1
16430,0.06,-0.01,-1.01,1.19,-1.13,0.13,24.33,-6.13,37.49,1
16441,0.06,-0.01,-1.01,1.49,-1.2,0.29,24.33,-6.1,37.6,1
16452,0.06,-0.01,-1.01,2.14,-1.29,0.52,24.33,-6.1,37.6,1
16463,0.06,-0.01,-1.01,2.17,-1.23,0.53,24.33,-6.1,37.6,1
16474,0.06,-0.01,-1.01,2.07,-1.15,0.44,24.33,-6.1,37.6,1
16488,0.07,-0.01,-1.01,1.84,-1.12,0.33,24.32,-6.1,37.46,1
16498,0.07,-0.01,-1.01,1.75,-1.06,0.31,24.32,-6.1,37.46,1
16508,0.07,-0.01,-1.01,1.54,-1.03,0.26,24.32,-6.1,37.46,1
16518,0.06,-0.01,-1.01,1.28,-1.12,0.16,24.32,-6.1,37.46,1
16529,0.06,-0.01,-1.01,0.88,-1.29,-0.13,24.32,-6.1,37.46,1
16541,0.06,-0.01,-1.01,0.9,-1.27,-0.1,24.28,-6.07,37.54,1
16553,0.06,-0.01,-1.01,1.08,-1.25,-0.04,24.28,-6.07,37.54,1
16565,0.06,-0.01,-1.01,1.71,-1.0,0.05,24.28,-6.07,37.54,1
16575,0.06,-0.01,-1.01,1.97,-0.9,0.04,24.28,-6.07,37.54,1
16586,0.06,-0.01,-1.01,2.08,-0.81,0.04,24.31,-6.02,37.51,1
16599,0.06,-0.01,-1.01,1.8,-0.95,-0.11,24.31,-6.02,37.51,1
16611,0.06,-0.01,-1.01,1.39,-1.08,-0.26,24.31,-6.02,37.51,1
16625,0.06,-0.01,-1.01,0.98,-1.45,-0.37,24.31,-6.02,37.51,1
16636,0.06,-0.01,-1.01,0.98,-1.5,-0.29,24.15,-6.11,37.57,1
16647,0.06,-0.01,-1.01,0.86,-1.58,-0.24,24.15,-6.11,37.57,1
16660,0.07,-0.01,-1.01,0.53,-1.6,-0.44,24.15,-6.11,37.57,1
16670,0.07,-0.01,-1.01,0.81,-1.44,-0.38,24.15,-6.11,37.57,1
16681,0.07,-0.01,-1.01,1.27,-1.23,-0.25,24.15,-6.11,37.57,1
16694,0.07,-0.01,-1.01,1.87,-1.1,0.02,24.36,-6.12,37.63,1
16706,0.07,-0.01,-1.01,1.77,-1.13,-0.01,24.36,-6.12,37.63,1
16720,0.07,-0.01,-1.01,1.26,-1.39,-0.23,24.36,-6.12,37.63,1
16731,0.07,-0.01,-1.01,1.09,-1.42,-0.3,24.36,-6.12,37.63,1
16744,0.07,-0.01,-1.01,1.22,-1.39,-0.17,24.32,-6.06,37.56,1
16755,0.07,-0.01,-1.01,1.42,-1.31,-0.09,24.32,-6.06,37.56,1
16767,0.06,-0.01,-1.01,1.56,-1.27,-0.02,24.32,-6.06,37.56,1
16778,0.06,-0.01,-1.01,1.53,-1.15,-0.01,24.32,-6.06,37.56,1
16790,0.06,-0.01,-1.01,1.46,-1.07,-0.04,24.33,-6.04,37.62,1
16802,0.06,-0.01,-1.01,1.5,-0.97,-0.08,24.33,-6.04,37.62,1
16814,0.06,-0.01,-1.01,1.66,-0.92,0.01,24.33,-6.04,37.62,1
16825,0.06,-0.01,-1.01,1.62,-1.03,0.01,24.33,-6.04,37.62,1
16836,0.06,-0.01,-1.01,1.48,-1.15,-0.1,24.4,-5.95,37.69,1
16849,0.06,-0.01,-1.01,1.1,-1.26,-0.32,24.4,-5.95,37.69,1
16860,0.06,-0.01,-1.01,0.99,-1.29,-0.41,24.4,-5.95,37.69,1
16871,0.06,-0.01,-1.01,0.95,-1.36,-0.45,24.4,-5.95,37.69,1
16884,0.06,-0.01,-1.01,1.25,-1.35,-0.41,24.43,-5.9,37.78,1
16895,0.06,-0.01,-1.01,1.53,-1.23,-0.32,24.43,-5.9,37.78,1
16907,0.06,-0.01,-1.01,2.03,-1.05,-0.04,24.43,-5.9,37.78,1
16918,0.06,-0.01,-1.01,2.15,-1.03,0.03,24.43,-5.9,37.78,1
16928,0.06,-0.01,-1.01,2.08,-1.02,0.06,24.43,-5.9,37.78,1
16939,0.06,-0.01,-1.01,1.92,-1.1,0.11,24.41,-5.91,37.61,1
16950,0.06,-0.01,-1.01,1.32,-1.39,0.01,24.41,-5.91,37.61,1
16961,0.07,-0.01,-1.01,1.12,-1.47,-0.06,24.41,-5.91,37.61,1
16972,0.07,-0.01,-1.01,1.13,-1.48,-0.15,24.41,-5.91,37.61,1
16983,0.07,-0.01,-1.01,1.15,-1.44,-0.21,24.42,-5.99,37.41,1
16995,0.07,-0.01,-1.01,1.0,-1.42,-0.26,24.42,-5.99,37.41,1
17006,0.07,-0.01,-1.01,0.64,-1.52,-0.43,24.42,-5.99,37.41,1
17017,0.07,-0.01,-1.01,0.25,-1.55,-0.81,24.42,-5.99,37.41,1
17029,0.07,-0.01,-1.01,-0.42,-1.31,-1.65,24.42,-5.99,37.41,1
17040,0.07,-0.01,-1.01,-0.44,-1.4,-1.7,24.42,-6.05,37.28,1
17054,0.07,-0.01,-1.01,0.22,-1.62,-1.33,24.42,-6.05,37.28,1
17066,0.07,-0.01,-1.01,0.52,-1.57,-1.09,24.42,-6.05,37.28,1
17079,0.07,-0.01,-1.01,0.76,-1.53,-1.0,24.42,-6.05,37.28,1
17091,0.07,-0.01,-1.01,0.7,-1.38,-1.11,24.48,-6.09,37.01,1
17103,0.07,-0.01,-1.01,0.48,-1.35,-1.17,24.48,-6.09,37.01,1
17115,0.07,-0.01,-1.01,-0.1,-1.68,-1.16,24.48,-6.09,37.01,1
17126,0.07,-0.01,-1.01,-0.26,-1.86,-1.21,24.48,-6.09,37.01,1
17139,0.07,-0.01,-1.01,-0.06,-1.76,-1.09,24.46,-6.11,37.22,1
17150,0.07,-0.02,-1.01,0.19,-1.57,-0.93,24.46,-6.11,37.22,1
17162,0.07,-0.02,-1.01,0.33,-1.43,-0.77,24.46,-6.11,37.22,1
17173,0.07,-0.02,-1.01,0.22,-1.36,-0.61,24.46,-6.11,37.22,1
17185,0.07,-0.02,-1.01,0.15,-1.33,-0.8,24.38,-6.08,37.1,1
17196,0.07,-0.02,-1.01,0.1,-1.1,-1.0,24.38,-6.08,37.1,1
17208,0.07,-0.02,-1.01,0.4,-0.85,-1.07,24.38,-6.08,37.1,1
17219,0.07,-0.02,-1.01,0.78,-0.89,-0.85,24.38,-6.08,37.1,1
17230,0.06,-0.02,-1.01,1.19,-0.87,-0.52,24.38,-6.08,37.1,1
17244,0.07,-0.02,-1.01,1.49,-0.79,0.0,24.38,-5.95,37.14,1
17254,0.07,-0.02,-1.01,1.26,-0.72,-0.05,24.38,-5.95,37.14,1
17265,0.07,-0.02,-1.01,0.91,-0.66,-0.2,24.38,-5.95,37.14,1
17278,0.07,-0.02,-1.01,0.32,-0.78,-0.51,24.38,-5.95,37.14,1
17289,0.07,-0.02,-1.01,0.27,-0.97,-0.54,24.34,-5.83,37.25,1
17301,0.07,-0.02,-1.01,0.54,-1.06,-0.41,24.34,-5.83,37.25,1
17313,0.07,-0.02,-1.01,0.61,-1.08,-0.35,24.34,-5.83,37.25,1
17325,0.07,-0.02,-1.01,0.54,-1.08,-0.39,24.34,-5.83,37.25,1
17338,0.07,-0.02,-1.01,0.39,-1.0,-0.56,24.35,-5.83,37.18,1
17349,0.07,-0.03,-1.01,0.5,-0.94,-0.61,24.35,-5.83,37.18,1
17360,0.07,-0.03,-1.01,0.78,-0.8,-0.61,24.35,-5.83,37.18,1
17372,0.07,-0.03,-1.01,1.33,-0.51,-0.49,24.35,-5.83,37.18,1
17383,0.07,-0.02,-1.01,1.38,-0.54,-0.52,24.39,-5.69,37.25,1
17395,0.06,-0.02,-1.01,1.14,-0.66,-0.65,24.39,-5.69,37.25,1
17407,0.06,-0.02,-1.01,-0.02,-0.8,-0.87,24.39,-5.69,37.25,1
17418,0.06,-0.03,-1.01,-0.66,-0.98,-1.09,24.39,-5.69,37.25,1
17433,0.06,-0.02,-1.01,-1.37,-1.16,-1.46,24.53,-5.6,37.43,1
17445,0.06,-0.03,-1.01,-1.47,-1.07,-1.67,24.53,-5.6,37.43,1
17456,0.06,-0.03,-1.01,-1.13,-0.82,-1.49,24.53,-5.6,37.43,1
17467,0.06,-0.03,-1.01,-0.66,-0.79,-1.09,24.53,-5.6,37.43,1
17478,0.07,-0.03,-1.01,-0.33,-0.71,-0.67,24.53,-5.6,37.43,1
17489,0.07,-0.03,-1.01,-0.38,-0.36,-0.11,24.44,-5.38,37.37,1
17501,0.07,-0.03,-1.01,-1.3,0.27,0.36,24.44,-5.38,37.37,1
17513,0.07,-0.03,-1.01,-1.77,0.21,0.43,24.44,-5.38,37.37,1
17523,0.06,-0.03,-1.01,-1.85,0.14,0.36,24.44,-5.38,37.37,1
17536,0.06,-0.04,-1.01,-1.49,0.14,0.39,24.37,-5.41,37.45,1
17547,0.06,-0.03,-1.01,-1.47,0.0,0.52,24.37,-5.41,37.45,1
17561,0.06,-0.03,-1.01,-1.96,-0.49,-0.13,24.37,-5.41,37.45,1
17573,0.06,-0.03,-1.01,-2.39,-0.65,-0.74,24.37,-5.41,37.45,1
17586,0.06,-0.03,-1.01,-2.75,-0.58,-1.45,24.4,-5.47,37.64,1
17598,0.06,-0.04,-1.01,-2.4,-0.67,-1.54,24.4,-5.47,37.64,1
17611,0.06,-0.04,-1.01,-1.31,-1.07,-1.17,24.4,-5.47,37.64,1
17623,0.06,-0.04,-1.01,-0.94,-1.1,-1.02,24.4,-5.47,37.64,1
17634,0.06,-0.04,-1.01,-0.78,-1.09,-1.0,24.41,-5.48,37.61,1
17645,0.06,-0.03,-1.01,-0.81,-0.94,-0.97,24.41,-5.48,37.61,1
17657,0.06,-0.04,-1.01,-0.83,-0.91,-0.89,24.41,-5.48,37.61,1
17668,0.06,-0.04,-1.01,-0.84,-0.98,-0.8,24.41,-5.48,37.61,1
17682,0.06,-0.04,-1.01,-0.99,-1.15,-1.02,24.49,-5.48,37.63,1
17693,0.06,-0.04,-1.01,-1.03,-1.16,-1.2,24.49,-5.48,37.63,1
17707,0.06,-0.04,-1.01,-0.49,-0.98,-1.1,24.49,-5.48,37.63,1
17719,0.06,-0.05,-1.01,0.12,-0.94,-0.83,24.49,-5.48,37.63,1
17733,0.06,-0.04,-1.01,1.09,-0.83,-0.44,24.38,-5.39,37.64,1
17745,0.06,-0.04,-1.01,1.25,-0.73,-0.35,24.38,-5.39,37.64,1
17757,0.06,-0.04,-1.01,0.74,-0.95,-0.51,24.38,-5.39,37.64,1
17768,0.06,-0.04,-1.01,0.51,-1.24,-0.63,24.38,-5.39,37.64,1
17779,0.06,-0.05,-1.01,0.44,-1.4,-0.69,24.38,-5.39,37.64,1
17792,0.07,-0.05,-1.01,0.89,-1.4,-0.75,24.23,-5.29,37.72,1
17804,0.06,-0.05,-1.01,1.26,-1.28,-0.82,24.23,-5.29,37.72,1
17815,0.06,-0.05,-1.01,1.55,-1.16,-0.84,24.23,-5.29,37.72,1
17826,0.06,-0.05,-1.01,1.17,-1.24,-1.04,24.23,-5.29,37.72,1
17838,0.06,-0.04,-1.01,0.6,-1.32,-1.3,24.24,-5.13,37.93,1
17850,0.06,-0.05,-1.01,0.03,-1.37,-1.55,24.24,-5.13,37.93,1
17862,0.06,-0.05,-1.01,-0.47,-1.49,-1.84,24.24,-5.13,37.93,1
17874,0.06,-0.05,-1.01,-0.25,-1.54,-1.74,24.24,-5.13,37.93,1
17886,0.06,-0.05,-1.01,0.37,-1.73,-1.47,24.24,-5.07,37.96,1
17898,0.06,-0.05,-1.01,0.33,-1.82,-1.61,24.24,-5.07,37.96,1
17909,0.06,-0.05,-1.01,0.04,-1.82,-1.88,24.24,-5.07,37.96,1
17922,0.07,-0.05,-1.01,-0.55,-1.7,-2.4,24.24,-5.07,37.96,1
17933,0.07,-0.05,-1.01,-0.51,-1.58,-2.47,24.29,-4.94,38.29,1
17946,0.07,-0.05,-1.01,-0.14,-1.4,-2.34,24.29,-4.94,38.29,1
17957,0.07,-0.05,-1.01,-0.14,-1.36,-2.3,24.29,-4.94,38.29,1
17969,0.07,-0.05,-1.01,-0.21,-1.38,-2.32,24.29,-4.94,38.29,1
17981,0.06,-0.05,-1.01,-0.61,-1.29,-2.34,24.37,-4.88,38.2,1
17993,0.07,-0.05,-1.01,-0.87,-1.27,-2.33,24.37,-4.88,38.2,1
18006,0.07,-0.05,-1.01,-1.3,-1.4,-2.73,24.37,-4.88,38.2,1
18017,0.06,-0.05,-1.01,-1.33,-1.26,-2.86,24.37,-4.88,38.2,1
18029,0.06,-0.05,-1.01,-1.1,-1.07,-2.76,24.37,-4.88,38.2,1
18042,0.07,-0.05,-1.01,-0.45,-1.05,-2.32,24.51,-4.83,38.36,1
18054,0.07,-0.05,-1.01,-0.54,-1.1,-2.29,24.51,-4.83,38.36,1
18068,0.07,-0.05,-1.01,-0.96,-0.99,-2.42,24.51,-4.83,38.36,1
18081,0.07,-0.05,-1.01,-1.18,-0.98,-2.48,24.57,-4.76,38.4,1
18092,0.07,-0.05,-1.01,-2.32,-1.41,-3.08,24.57,-4.76,38.4,1
18103,0.07,-0.06,-1.01,-3.09,-1.48,-3.53,24.57,-4.76,38.4,1
18115,0.07,-0.06,-1.01,-3.37,-1.39,-3.71,24.57,-4.76,38.4,1
18126,0.07,-0.06,-1.01,-2.5,-1.0,-3.26,24.57,-4.76,38.4,1
18138,0.06,-0.06,-1.01,-2.02,-0.84,-3.02,24.58,-4.7,38.46,1
18150,0.06,-0.06,-1.01,-1.78,-0.7,-2.84,24.58,-4.7,38.46,1
18162,0.06,-0.06,-1.01,-1.76,-0.57,-2.7,24.58,-4.7,38.46,1
18174,0.06,-0.06,-1.01,-1.82,-0.45,-2.44,24.58,-4.7,38.46,1
18186,0.06,-0.06,-1.01,-1.23,-0.19,-1.86,24.66,-4.63,38.51,1
18198,0.06,-0.06,-1.01,-0.58,-0.11,-1.41,24.66,-4.63,38.51,1
18209,0.06,-0.06,-1.01,0.11,-0.04,-0.95,24.66,-4.63,38.51,1
18221,0.06,-0.06,-1.01,0.92,-0.18,-0.41,24.66,-4.63,38.51,1
18233,0.06,-0.06,-1.01,1.0,-0.36,-0.4,24.68,-4.5,38.41,1
18244,0.06,-0.06,-1.01,0.97,-0.44,-0.46,24.68,-4.5,38.41,1
18257,0.06,-0.07,-1.01,0.98,-0.61,-0.42,24.68,-4.5,38.41,1
18267,0.06,-0.07,-1.01,0.96,-0.77,-0.32,24.68,-4.5,38.41,1
18278,0.06,-0.07,-1.01,0.86,-0.82,-0.29,24.68,-4.5,38.41,1
18292,0.06,-0.07,-1.01,0.23,-0.89,-0.53,24.75,-4.46,38.36,1
18302,0.06,-0.07,-1.01,-0.21,-0.86,-0.77,24.75,-4.46,38.36,1
18313,0.06,-0.07,-1.01,-0.47,-0.78,-0.89,24.75,-4.46,38.36,1
18326,0.06,-0.07,-1.01,0.14,-0.56,-0.64,24.75,-4.46,38.36,1
18337,0.06,-0.07,-1.01,0.86,-0.49,-0.32,24.75,-4.41,38.56,1
18349,0.06,-0.07,-1.01,1.61,-0.52,-0.06,24.75,-4.41,38.56,1
18361,0.06,-0.07,-1.01,1.31,-0.65,-0.14,24.75,-4.41,38.56,1
18372,0.06,-0.07,-1.01,0.79,-0.85,-0.35,24.75,-4.41,38.56,1
18386,0.06,-0.07,-1.01,0.16,-1.09,-0.71,24.64,-4.43,38.64,1
18397,0.06,-0.07,-1.01,0.41,-1.09,-0.73,24.64,-4.43,38.64,1
18408,0.06,-0.07,-1.01,0.83,-1.11,-0.64,24.64,-4.43,38.64,1
18420,0.06,-0.07,-1.01,1.55,-1.07,-0.25,24.64,-4.43,38.64,1
18431,0.06,-0.07,-1.01,1.58,-0.98,-0.19,24.67,-4.33,38.54,1
18444,0.06,-0.07,-1.01,1.2,-0.79,-0.56,24.67,-4.33,38.54,1
18455,0.06,-0.07,-1.01,1.08,-0.72,-0.72,24.67,-4.33,38.54,1
18467,0.06,-0.07,-1.01,1.22,-0.76,-0.71,24.67,-4.33,38.54,1
18481,0.06,-0.07,-1.01,1.69,-0.83,-0.53,24.59,-4.23,38.51,1
18492,0.06,-0.07,-1.01,1.82,-0.82,-0.53,24.59,-4.23,38.51,1
18505,0.06,-0.07,-1.01,1.63,-0.67,-0.61,24.59,-4.23,38.51,1
18517,0.06,-0.07,-1.01,1.43,-0.71,-0.59,24.59,-4.23,38.51,1
18531,0.06,-0.07,-1.01,1.1,-0.8,-0.58,24.59,-4.26,38.64,1
18542,0.06,-0.07,-1.01,0.96,-0.77,-0.65,24.59,-4.26,38.64,1
18553,0.06,-0.07,-1.01,0.88,-0.75,-0.7,24.59,-4.26,38.64,1
18564,0.06,-0.07,-1.01,1.11,-1.0,-0.62,24.59,-4.26,38.64,1
18575,0.06,-0.07,-1.01,1.44,-1.05,-0.54,24.59,-4.26,38.64,1
18586,0.06,-0.07,-1.01,1.85,-0.98,-0.45,24.62,-4.2,38.63,1
18597,0.06,-0.07,-1.01,2.25,-0.86,-0.33,24.62,-4.2,38.63,1
18609,0.06,-0.07,-1.01,2.2,-0.94,-0.18,24.62,-4.2,38.63,1
18620,0.06,-0.07,-1.01,2.0,-1.07,-0.22,24.62,-4.2,38.63,1
18633,0.06,-0.07,-1.01,2.23,-0.96,-0.04,24.65,-4.23,38.46,1
18644,0.06,-0.07,-1.01,2.63,-0.87,0.21,24.65,-4.23,38.46,1
18655,0.06,-0.07,-1.01,2.77,-0.88,0.32,24.65,-4.23,38.46,1
18666,0.06,-0.07,-1.01,2.5,-1.04,0.22,24.65,-4.23,38.46,1
18678,0.06,-0.07,-1.01,1.63,-1.17,-0.19,24.65,-4.23,38.46,1
18689,0.06,-0.07,-1.01,1.57,-1.03,-0.13,24.82,-4.12,38.49,1
18703,0.06,-0.07,-1.01,1.78,-0.71,0.22,24.82,-4.12,38.49,1
18714,0.06,-0.07,-1.01,1.78,-0.73,0.22,24.82,-4.12,38.49,1
18727,0.06,-0.07,-1.01,1.35,-0.94,0.11,24.82,-4.12,38.49,1
18739,0.06,-0.07,-1.01,1.32,-0.89,0.09,24.79,-4.18,38.53,1
18751,0.06,-0.07,-1.01,1.55,-0.76,0.19,24.79,-4.18,38.53,1
18763,0.06,-0.07,-1.01,1.95,-0.82,0.53,24.79,-4.18,38.53,1
18775,0.06,-0.07,-1.01,1.78,-1.04,0.47,24.79,-4.18,38.53,1
18786,0.06,-0.07,-1.01,1.38,-1.23,0.31,24.79,-4.15,38.76,1
18798,0.06,-0.08,-1.01,1.17,-1.13,0.13,24.79,-4.15,38.76,1
18809,0.06,-0.08,-1.01,1.67,-1.04,0.24,24.79,-4.15,38.76,1
18820,0.06,-0.08,-1.01,2.38,-0.98,0.43,24.79,-4.15,38.76,1
18833,0.06,-0.07,-1.01,3.03,-0.72,0.51,24.77,-4.16,38.67,1
18843,0.06,-0.07,-1.01,2.71,-0.7,0.34,24.77,-4.16,38.67,1
18854,0.06,-0.07,-1.01,2.14,-0.71,0.08,24.77,-4.16,38.67,1
18867,0.06,-0.07,-1.01,1.5,-0.8,-0.1,24.77,-4.16,38.67,1
18879,0.06,-0.07,-1.01,1.48,-0.92,-0.09,24.75,-4.04,38.55,1
18892,0.06,-0.07,-1.01,1.61,-1.02,-0.23,24.75,-4.04,38.55,1
18903,0.06,-0.07,-1.01,1.77,-0.86,-0.37,24.75,-4.04,38.55,1
18914,0.06,-0.07,-1.01,1.98,-0.77,-0.34,24.75,-4.04,38.55,1
18925,0.06,-0.07,-1.01,2.47,-0.75,-0.05,24.75,-4.04,38.55,1
18937,0.06,-0.07,-1.01,2.56,-0.88,0.18,24.66,-3.96,38.45,1
18948,0.06,-0.07,-1.01,2.4,-0.97,0.23,24.66,-3.96,38.45,1
18960,0.06,-0.07,-1.01,1.67,-0.94,-0.1,24.66,-3.96,38.45,1
18972,0.06,-0.07,-1.01,1.37,-0.93,-0.21,24.66,-3.96,38.45,1
18983,0.06,-0.07,-1.01,1.24,-1.04,-0.13,24.65,-3.92,38.56,1
18995,0.06,-0.07,-1.01,0.96,-1.2,0.17,24.65,-3.92,38.56,1
19007,0.06,-0.07,-1.01,0.83,-1.12,0.18,24.65,-3.92,38.56,1
19021,0.06,-0.07,-1.01,0.84,-0.97,0.13,24.65,-3.92,38.56,1
19032,0.06,-0.07,-1.01,1.02,-0.92,0.25,24.56,-3.84,38.68,1
19043,0.06,-0.07,-1.01,1.22,-0.92,0.43,24.56,-3.84,38.68,1
19055,0.06,-0.07,-1.01,1.43,-0.84,0.55,24.56,-3.84,38.68,1
19067,0.06,-0.07,-1.01,1.45,-0.79,0.52,24.56,-3.84,38.68,1
19082,0.06,-0.07,-1.01,1.5,-0.82,0.6,24.61,-3.85,38.83,1
19093,0.06,-0.07,-1.01,1.55,-0.92,0.52,24.61,-3.85,38.83,1
19107,0.06,-0.07,-1.01,1.54,-0.82,0.3,24.61,-3.85,38.83,1
19119,0.06,-0.07,-1.01,1.61,-0.82,0.27,24.61,-3.85,38.83,1
19130,0.06,-0.07,-1.01,1.72,-0.78,0.29,24.56,-3.87,38.57,1
19141,0.06,-0.07,-1.01,1.82,-0.79,0.26,24.56,-3.87,38.57,1
19152,0.06,-0.07,-1.01,1.84,-0.79,0.21,24.56,-3.87,38.57,1
19163,0.06,-0.07,-1.01,1.63,-0.87,0.27,24.56,-3.87,38.57,1
19174,0.06,-0.07,-1.01,1.16,-1.11,0.26,24.56,-3.87,38.57,1
19186,0.06,-0.07,-1.01,1.02,-1.14,0.21,24.62,-3.96,38.63,1
19197,0.06,-0.07,-1.01,0.95,-1.18,0.14,24.62,-3.96,38.63,1
19209,0.06,-0.07,-1.01,0.99,-1.22,0.13,24.62,-3.96,38.63,1
19221,0.06,-0.07,-1.01,1.15,-1.18,0.19,24.62,-3.96,38.63,1
19232,0.06,-0.08,-1.01,1.34,-1.07,0.27,24.58,-3.83,38.59,1
19244,0.06,-0.08,-1.01,1.73,-0.81,0.42,24.58,-3.83,38.59,1
19256,0.06,-0.07,-1.01,1.74,-0.77,0.45,24.58,-3.83,38.59,1
19270,0.06,-0.07,-1.0,0.92,-0.83,0.33,24.58,-3.83,38.59,1
19281,0.06,-0.07,-1.0,0.01,-1.01,0.23,24.57,-3.78,38.77,1
19291,0.06,-0.07,-1.01,-0.88,-1.16,-0.08,24.57,-3.78,38.77,1
19305,0.06,-0.08,-1.01,-1.39,-0.86,-0.42,24.57,-3.78,38.77,1
19316,0.06,-0.08,-1.01,-1.16,-0.77,-0.38,24.57,-3.78,38.77,1
19331,0.06,-0.08,-1.01,-0.1,-0.77,0.12,24.59,-3.8,38.8,1
19343,0.06,-0.08,-1.01,0.18,-0.56,0.22,24.59,-3.8,38.8,1
19354,0.06,-0.08,-1.01,0.07,-0.07,0.17,24.59,-3.8,38.8,1
19365,0.06,-0.08,-1.01,-0.08,-0.07,0.22,24.59,-3.8,38.8,1
19376,0.06,-0.08,-1.01,-0.25,-0.24,0.23,24.59,-3.8,38.8,1
19389,0.06,-0.08,-1.01,0.04,-0.28,0.11,24.59,-3.81,38.62,1
19400,0.06,-0.08,-1.01,0.29,-0.19,0.14,24.59,-3.81,38.62,1
19411,0.06,-0.08,-1.01,0.38,-0.22,0.16,24.59,-3.81,38.62,1
19425,0.06,-0.08,-1.01,0.17,-0.35,-0.02,24.59,-3.81,38.62,1
19436,0.06,-0.08,-1.01,0.05,-0.34,-0.03,24.6,-3.7,38.24,1
19449,0.06,-0.08,-1.01,0.3,-0.23,0.29,24.6,-3.7,38.24,1
19460,0.05,-0.08,-1.01,0.7,-0.22,0.46,24.6,-3.7,38.24,1
19472,0.05,-0.08,-1.01,1.05,-0.24,0.5,24.6,-3.7,38.24,1
19485,0.05,-0.08,-1.01,1.28,-0.29,0.5,24.71,-3.61,38.41,1
19495,0.05,-0.08,-1.0,1.17,-0.37,0.53,24.71,-3.61,38.41,1
19505,0.06,-0.08,-1.0,1.04,-0.43,0.54,24.71,-3.61,38.41,1
19515,0.06,-0.08,-1.01,1.04,-0.43,0.56,24.71,-3.61,38.41,1
19526,0.06,-0.08,-1.01,1.48,-0.33,0.6,24.71,-3.61,38.41,1
19538,0.05,-0.08,-1.01,1.61,-0.33,0.6,24.67,-3.5,38.37,1
19550,0.05,-0.08,-1.01,1.77,-0.35,0.58,24.67,-3.5,38.37,1
19562,0.05,-0.08,-1.01,1.92,-0.4,0.38,24.67,-3.5,38.37,1
19573,0.05,-0.08,-1.01,2.01,-0.43,0.28,24.67,-3.5,38.37,1
19584,0.05,-0.08,-1.01,2.1,-0.48,0.22,24.67,-3.41,38.45,1
19596,0.06,-0.08,-1.01,2.09,-0.67,0.14,24.67,-3.41,38.45,1
19608,0.06,-0.08,-1.01,2.1,-0.71,0.14,24.67,-3.41,38.45,1
19622,0.06,-0.08,-1.01,2.04,-0.74,0.09,24.67,-3.41,38.45,1
19633,0.06,-0.08,-1.01,2.04,-0.74,0.0,24.61,-3.33,38.57,1
19644,0.06,-0.08,-1.01,2.06,-0.72,-0.07,24.61,-3.33,38.57,1
19657,0.05,-0.08,-1.01,2.09,-0.67,-0.05,24.61,-3.33,38.57,1
19667,0.05,-0.08,-1.01,2.06,-0.74,-0.07,24.61,-3.33,38.57,1
19678,0.05,-0.08,-1.01,1.97,-0.83,-0.04,24.45,-3.42,38.76,1
19689,0.05,-0.08,-1.01,2.07,-0.88,0.06,24.45,-3.42,38.76,1
19700,0.05,-0.08,-1.01,2.26,-0.77,0.21,24.45,-3.42,38.76,1
19712,0.05,-0.08,-1.01,2.37,-0.76,0.38,24.45,-3.42,38.76,1
19725,0.05,-0.08,-1.01,2.26,-0.83,0.33,24.45,-3.42,38.76,1
19736,0.05,-0.08,-1.01,2.26,-0.86,0.27,24.47,-3.34,38.95,1
19747,0.05,-0.08,-1.01,2.34,-0.85,0.32,24.47,-3.34,38.95,1
19758,0.05,-0.08,-1.01,2.5,-0.75,0.33,24.47,-3.34,38.95,1
19769,0.05,-0.08,-1.01,2.57,-0.72,0.26,24.47,-3.34,38.95,1
19780,0.05,-0.08,-1.01,2.56,-0.7,0.22,24.46,-3.33,38.93,1
19793,0.05,-0.08,-1.01,2.06,-0.9,0.01,24.46,-3.33,38.93,1
19804,0.05,-0.08,-1.01,1.6,-1.17,-0.21,24.46,-3.33,38.93,1
19814,0.05,-0.08,-1.01,1.3,-1.41,-0.38,24.46,-3.33,38.93,1
19827,0.05,-0.08,-1.01,1.71,-1.4,-0.32,24.44,-3.24,38.67,1
19838,0.05,-0.08,-1.01,2.24,-1.34,-0.13,24.44,-3.24,38.67,1
19849,0.05,-0.08,-1.01,2.52,-1.31,0.01,24.44,-3.24,38.67,1
19861,0.05,-0.08,-1.01,1.98,-1.44,-0.18,24.44,-3.24,38.67,1
19872,0.05,-0.08,-1.01,1.54,-1.39,-0.45,24.44,-3.24,38.67,1
19883,0.05,-0.08,-1.01,1.31,-1.25,-0.54,24.43,-3.35,38.68,1
19897,0.05,-0.08,-1.01,1.63,-1.0,-0.24,24.43,-3.35,38.68,1
19908,0.06,-0.07,-1.01,1.83,-1.05,-0.09,24.43,-3.35,38.68,1
19919,0.06,-0.07,-1.01,1.89,-1.14,-0.06,24.43,-3.35,38.68,1
19932,0.06,-0.07,-1.01,1.89,-1.08,-0.03,24.33,-3.33,38.53,1
19944,0.06,-0.07,-1.01,2.01,-1.03,0.02,24.33,-3.33,38.53,1
19957,0.06,-0.07,-1.01,2.01,-1.07,-0.03,24.33,-3.33,38.53,1
19968,0.06,-0.07,-1.01,1.81,-1.14,-0.08,24.33,-3.33,38.53,1
19979,0.06,-0.08,-1.01,1.6,-1.25,-0.11,24.44,-3.39,38.56,1
19991,0.06,-0.08,-1.01,1.31,-1.24,-0.04,24.44,-3.39,38.56,1
20003,0.05,-0.08,-1.01,1.26,-1.07,-0.05,24.44,-3.39,38.56,1
20015,0.05,-0.08,-1.01,1.26,-0.88,-0.02,24.44,-3.39,38.56,1
20028,0.05,-0.08,-1.0,1.31,-0.78,0.05,24.46,-3.4,38.4,1
20039,0.05,-0.08,-1.0,1.3,-0.74,0.19,24.46,-3.4,38.4,1
20051,0.05,-0.08,-1.0,1.29,-0.76,0.36,24.46,-3.4,38.4,1
20062,0.05,-0.08,-1.0,1.45,-0.76,0.38,24.46,-3.4,38.4,1
20072,0.05,-0.08,-1.0,1.73,-0.77,0.43,24.46,-3.4,38.4,1
20083,0.05,-0.08,-1.01,1.98,-0.78,0.51,24.36,-3.48,38.59,1
20095,0.05,-0.08,-1.01,1.99,-0.9,0.54,24.36,-3.48,38.59,1
20106,0.05,-0.08,-1.01,1.78,-0.98,0.42,24.36,-3.48,38.59,1
20117,0.06,-0.08,-1.01,1.55,-1.01,0.28,24.36,-3.48,38.59,1
20130,0.06,-0.08,-1.01,1.34,-0.91,-0.07,24.25,-3.52,38.35,1
20141,0.05,-0.08,-1.01,1.36,-0.88,-0.12,24.25,-3.52,38.35,1
20153,0.05,-0.08,-1.01,1.42,-0.83,-0.13,24.25,-3.52,38.35,1
20164,0.05,-0.08,-1.01,1.54,-0.77,-0.12,24.25,-3.52,38.35,1
20177,0.05,-0.08,-1.01,1.67,-0.72,-0.09,24.21,-3.61,38.12,1
20189,0.05,-0.07,-1.01,1.99,-0.77,-0.04,24.21,-3.61,38.12,1
20200,0.05,-0.07,-1.01,2.01,-0.79,-0.01,24.21,-3.61,38.12,1
20211,0.05,-0.07,-1.01,1.89,-0.91,0.01,24.21,-3.61,38.12,1
20223,0.05,-0.07,-1.01,1.41,-1.31,0.03,24.21,-3.61,38.12,1
20234,0.05,-0.07,-1.01,1.1,-1.52,0.01,24.32,-3.68,38.14,1
20245,0.05,-0.08,-1.01,0.87,-1.7,0.05,24.32,-3.68,38.14,1
20257,0.05,-0.08,-1.01,0.85,-1.65,0.33,24.32,-3.68,38.14,1
20269,0.06,-0.08,-1.01,1.03,-1.5,0.44,24.32,-3.68,38.14,1
20280,0.06,-0.08,-1.01,1.17,-1.36,0.47,24.36,-3.75,38.17,1
20292,0.06,-0.08,-1.01,1.19,-1.14,0.31,24.36,-3.75,38.17,1
20304,0.06,-0.08,-1.01,1.19,-1.05,0.28,24.36,-3.75,38.17,1
20318,0.06,-0.08,-1.01,1.17,-0.93,0.26,24.36,-3.75,38.17,1
20329,0.06,-0.08,-1.01,1.03,-0.83,0.2,24.4,-3.72,38.31,1
20341,0.06,-0.08,-1.01,0.7,-0.73,0.01,24.4,-3.72,38.31,1
20352,0.05,-0.08,-1.01,0.68,-0.8,-0.06,24.4,-3.72,38.31,1
20364,0.05,-0.08,-1.01,0.88,-0.8,-0.02,24.4,-3.72,38.31,1
20379,0.05,-0.08,-1.01,1.7,-0.68,0.19,24.34,-3.63,38.41,1
20390,0.05,-0.08,-1.01,2.16,-0.65,0.26,24.34,-3.63,38.41,1
20402,0.05,-0.08,-1.01,2.55,-0.54,0.24,24.34,-3.63,38.41,1
20413,0.05,-0.08,-1.01,2.42,-0.6,0.19,24.34,-3.63,38.41,1
20424,0.05,-0.08,-1.01,2.06,-0.76,0.04,24.34,-3.63,38.41,1
20437,0.05,-0.08,-1.01,1.37,-1.14,-0.22,24.33,-3.57,38.43,1
20449,0.05,-0.08,-1.01,1.26,-1.16,-0.29,24.33,-3.57,38.43,1
20462,0.05,-0.08,-1.01,1.8,-0.99,-0.24,24.33,-3.57,38.43,1
20473,0.05,-0.08,-1.01,1.98,-0.85,-0.23,24.33,-3.57,38.43,1
20484,0.05,-0.08,-1.01,1.96,-0.72,-0.29,24.37,-3.65,38.48,1
20498,0.05,-0.08,-1.01,1.48,-0.67,-0.5,24.37,-3.65,38.48,1
20510,0.05,-0.08,-1.01,1.31,-0.74,-0.57,24.37,-3.65,38.48,1
20523,0.05,-0.08,-1.0,1.64,-0.75,-0.48,24.37,-3.65,38.48,1
20535,0.05,-0.08,-1.0,1.78,-0.84,-0.4,24.36,-3.64,38.51,1
20546,0.05,-0.08,-1.0,1.8,-1.0,-0.27,24.36,-3.64,38.51,1
20559,0.06,-0.08,-1.01,1.89,-1.2,-0.15,24.36,-3.64,38.51,1
20570,0.06,-0.08,-1.01,1.96,-1.08,-0.08,24.36,-3.64,38.51,1
20583,0.06,-0.08,-1.01,2.06,-0.92,0.01,24.3,-3.63,38.25,1
20594,0.05,-0.08,-1.01,1.93,-0.88,-0.13,24.3,-3.63,38.25,1
20605,0.05,-0.08,-1.01,1.59,-0.9,-0.36,24.3,-3.63,38.25,1
20617,0.05,-0.08,-1.01,0.9,-1.13,-0.61,24.3,-3.63,38.25,1
20629,0.05,-0.08,-1.01,0.69,-1.25,-0.65,24.29,-3.62,38.38,1
20640,0.05,-0.08,-1.01,0.68,-1.25,-0.67,24.29,-3.62,38.38,1
20653,0.05,-0.08,-1.01,1.29,-1.03,-0.53,24.29,-3.62,38.38,1
20664,0.05,-0.08,-1.01,1.63,-0.91,-0.36,24.29,-3.62,38.38,1
20679,0.05,-0.07,-1.01,1.66,-0.87,-0.09,24.25,-3.53,38.47,1
20691,0.05,-0.07,-1.01,1.44,-0.96,-0.1,24.25,-3.53,38.47,1
20704,0.05,-0.07,-1.01,1.17,-1.15,-0.08,24.25,-3.53,38.47,1
20715,0.05,-0.07,-1.01,1.11,-1.18,-0.08,24.25,-3.53,38.47,1
20727,0.05,-0.08,-1.01,1.02,-1.23,-0.05,24.28,-3.49,38.45,1
20738,0.05,-0.08,-1.01,0.89,-1.28,0.0,24.28,-3.49,38.45,1
20749,0.05,-0.08,-1.01,0.76,-1.31,-0.02,24.28,-3.49,38.45,1
20760,0.05,-0.08,-1.01,0.89,-1.36,0.02,24.28,-3.49,38.45,1
20772,0.05,-0.08,-1.01,1.37,-1.26,0.35,24.28,-3.49,38.45,1
20784,0.05,-0.08,-1.01,1.46,-1.24,0.45,24.4,-3.43,38.52,1
20795,0.06,-0.08,-1.01,1.31,-1.29,0.27,24.4,-3.43,38.52,1
20807,0.06,-0.08,-1.01,0.81,-1.21,-0.28,24.4,-3.43,38.52,1
20818,0.06,-0.08,-1.01,0.7,-1.21,-0.41,24.4,-3.43,38.52,1
20829,0.06,-0.08,-1.01,0.74,-1.21,-0.43,24.42,-3.42,38.62,1
20840,0.05,-0.08,-1.01,0.8,-1.24,-0.38,24.42,-3.42,38.62,1
20851,0.05,-0.08,-1.01,0.76,-1.28,-0.42,24.42,-3.42,38.62,1
20863,0.05,-0.08,-1.01,0.74,-1.32,-0.45,24.42,-3.42,38.62,1
20874,0.05,-0.08,-1.01,1.06,-1.23,-0.41,24.42,-3.42,38.62,1
20886,0.05,-0.08,-1.01,1.24,-1.22,-0.31,24.45,-3.38,38.6,1
20898,0.05,-0.08,-1.01,1.32,-1.27,-0.17,24.45,-3.38,38.6,1
20910,0.05,-0.08,-1.01,1.07,-1.52,-0.11,24.45,-3.38,38.6,1
20922,0.05,-0.08,-1.01,0.88,-1.55,-0.11,24.45,-3.38,38.6,1
20933,0.05,-0.08,-1.01,0.75,-1.53,-0.13,24.48,-3.38,38.74,1
20945,0.06,-0.08,-1.01,1.16,-1.28,0.05,24.48,-3.38,38.74,1
20957,0.06,-0.08,-1.01,1.48,-1.15,0.19,24.48,-3.38,38.74,1
20967,0.06,-0.08,-1.01,1.63,-1.07,0.27,24.48,-3.38,38.74,1
20980,0.06,-0.08,-1.01,1.2,-1.09,0.14,24.44,-3.29,38.66,1
20991,0.06,-0.08,-1.01,1.03,-1.08,0.08,24.44,-3.29,38.66,1
21005,0.06,-0.08,-1.01,1.15,-1.01,0.19,24.44,-3.29,38.66,1
21017,0.05,-0.08,-1.01,1.36,-1.01,0.21,24.44,-3.29,38.66,1
21029,0.05,-0.08,-1.01,1.32,-1.07,0.16,24.37,-3.23,38.7,1
21040,0.05,-0.08,-1.01,1.25,-1.07,0.11,24.37,-3.23,38.7,1
21051,0.05,-0.09,-1.01,1.28,-1.04,0.06,24.37,-3.23,38.7,1
21065,0.05,-0.08,-1.01,1.69,-0.97,0.15,24.37,-3.23,38.7,1
21076,0.05,-0.08,-1.01,1.79,-0.96,0.2,24.22,-3.12,38.56,1
21089,0.05,-0.09,-1.01,1.6,-1.18,0.21,24.22,-3.12,38.56,1
21100,0.05,-0.09,-1.01,1.36,-1.27,0.18,24.22,-3.12,38.56,1
21112,0.05,-0.09,-1.01,1.14,-1.34,0.05,24.22,-3.12,38.56,1
21122,0.05,-0.09,-1.01,1.02,-1.37,-0.07,24.22,-3.12,38.56,1
21135,0.05,-0.09,-1.01,1.36,-1.25,0.02,24.29,-3.15,38.41,1
21146,0.06,-0.09,-1.01,1.62,-1.15,0.09,24.29,-3.15,38.41,1
21157,0.06,-0.09,-1.01,1.94,-1.08,0.13,24.29,-3.15,38.41,1
21168,0.06,-0.09,-1.01,1.97,-1.06,0.05,24.29,-3.15,38.41,1
21179,0.06,-0.09,-1.01,2.0,-1.01,-0.08,24.22,-3.25,38.27,1
21193,0.06,-0.09,-1.01,2.21,-0.84,-0.25,24.22,-3.25,38.27,1
21205,0.06,-0.08,-1.01,2.22,-0.79,-0.3,24.22,-3.25,38.27,1
21218,0.06,-0.08,-1.01,1.81,-0.92,-0.49,24.22,-3.25,38.27,1
21230,0.05,-0.08,-1.01,1.57,-1.05,-0.57,24.21,-3.22,38.29,1
21242,0.05,-0.08,-1.01,1.47,-1.14,-0.55,24.21,-3.22,38.29,1
21254,0.05,-0.08,-1.01,1.49,-1.02,-0.36,24.21,-3.22,38.29,1
21266,0.05,-0.08,-1.01,1.59,-0.93,-0.25,24.21,-3.22,38.29,1
21278,0.05,-0.08,-1.01,1.62,-0.89,-0.13,24.27,-3.29,38.41,1
21289,0.05,-0.08,-1.01,1.64,-0.92,-0.09,24.27,-3.29,38.41,1
21300,0.05,-0.08,-1.01,1.68,-0.95,0.0,24.27,-3.29,38.41,1
21314,0.05,-0.08,-1.01,1.79,-1.04,0.17,24.27,-3.29,38.41,1
21325,0.05,-0.08,-1.01,1.89,-1.07,0.23,24.35,-3.26,38.39,1
21338,0.05,-0.08,-1.01,1.93,-1.01,0.22,24.35,-3.26,38.39,1
21349,0.05,-0.08,-1.01,1.65,-1.06,0.11,24.35,-3.26,38.39,1
21359,0.05,-0.08,-1.01,1.32,-1.21,-0.06,24.35,-3.26,38.39,1
21370,0.05,-0.09,-1.01,1.07,-1.22,-0.23,24.35,-3.26,38.39,1
21384,0.05,-0.09,-1.01,1.14,-1.17,-0.27,24.3,-3.19,38.2,1
21395,0.05,-0.09,-1.01,1.2,-1.3,-0.23,24.3,-3.19,38.2,1
21406,0.05,-0.08,-1.0,1.13,-1.59,-0.34,24.3,-3.19,38.2,1
21418,0.05,-0.08,-1.0,1.18,-1.6,-0.34,24.3,-3.19,38.2,1
21429,0.05,-0.08,-1.0,1.38,-1.57,-0.25,24.4,-3.26,38.28,1
21443,0.05,-0.08,-1.0,1.64,-1.63,-0.18,24.4,-3.26,38.28,1
21455,0.05,-0.08,-1.0,1.55,-1.68,-0.14,24.4,-3.26,38.28,1
21465,0.05,-0.08,-1.01,1.36,-1.81,-0.08,24.4,-3.26,38.28,1
21478,0.06,-0.09,-1.01,1.11,-1.87,-0.04,24.41,-3.29,38.41,1
21490,0.06,-0.09,-1.01,1.15,-1.74,-0.0,24.41,-3.29,38.41,1
21501,0.06,-0.09,-1.01,1.1,-1.54,-0.06,24.41,-3.29,38.41,1
21512,0.06,-0.09,-1.01,1.17,-1.49,-0.06,24.41,-3.29,38.41,1
21525,0.06,-0.09,-1.01,1.31,-1.36,-0.02,24.41,-3.25,38.34,1
21537,0.06,-0.09,-1.01,1.44,-1.2,0.09,24.41,-3.25,38.34,1
21549,0.06,-0.09,-1.01,1.15,-1.15,-0.05,24.41,-3.25,38.34,1
21563,0.06,-0.09,-1.01,0.57,-1.22,-0.24,24.41,-3.25,38.34,1
21575,0.06,-0.09,-1.01,0.57,-1.27,-0.19,24.45,-3.25,38.34,1
21587,0.05,-0.09,-1.01,1.12,-1.14,0.01,24.45,-3.25,38.34,1
21598,0.05,-0.09,-1.01,1.4,-1.06,0.03,24.45,-3.25,38.34,1
21610,0.05,-0.09,-1.01,1.63,-1.08,0.03,24.45,-3.25,38.34,1
21620,0.05,-0.09,-1.01,1.73,-1.14,-0.03,24.45,-3.25,38.34,1
21633,0.06,-0.09,-1.01,1.66,-1.27,-0.04,24.5,-3.32,38.22,1
21645,0.06,-0.09,-1.01,1.6,-1.36,-0.11,24.5,-3.32,38.22,1
21656,0.06,-0.09,-1.01,1.53,-1.4,-0.11,24.5,-3.32,38.22,1
21667,0.06,-0.09,-1.01,1.46,-1.4,-0.1,24.5,-3.32,38.22,1
21678,0.06,-0.09,-1.01,1.35,-1.4,-0.16,24.5,-3.26,38.2,1
21692,0.06,-0.09,-1.01,1.16,-1.25,-0.35,24.5,-3.26,38.2,1
21704,0.06,-0.09,-1.01,1.18,-1.16,-0.39,24.5,-3.26,38.2,1
21714,0.06,-0.09,-1.01,1.33,-1.07,-0.43,24.5,-3.26,38.2,1
21727,0.06,-0.09,-1.01,1.73,-0.96,-0.44,24.55,-3.14,38.31,1
21738,0.06,-0.09,-1.01,1.82,-0.95,-0.37,24.55,-3.14,38.31,1
21749,0.06,-0.09,-1.01,1.73,-0.98,-0.26,24.55,-3.14,38.31,1
21761,0.06,-0.09,-1.01,0.95,-1.3,-0.49,24.55,-3.14,38.31,1
21773,0.06,-0.09,-1.01,0.76,-1.36,-0.62,24.55,-3.14,38.31,1
21786,0.06,-0.09,-1.01,1.21,-1.28,-0.51,24.59,-3.19,38.53,1
21797,0.06,-0.09,-1.01,1.55,-1.18,-0.37,24.59,-3.19,38.53,1
21810,0.06,-0.09,-1.01,1.77,-1.07,-0.28,24.59,-3.19,38.53,1
21821,0.06,-0.09,-1.01,1.53,-1.08,-0.38,24.59,-3.19,38.53,1
21832,0.06,-0.09,-1.01,1.35,-1.09,-0.51,24.63,-3.16,38.49,1
21843,0.06,-0.09,-1.01,1.33,-0.99,-0.56,24.63,-3.16,38.49,1
21855,0.05,-0.09,-1.01,1.86,-0.78,-0.22,24.63,-3.16,38.49,1
21867,0.05,-0.09,-1.01,2.08,-0.81,0.03,24.63,-3.16,38.49,1
21879,0.05,-0.09,-1.01,1.87,-1.01,0.2,24.72,-3.22,38.66,1
21890,0.05,-0.09,-1.01,1.61,-1.06,0.15,24.72,-3.22,38.66,1
21900,0.05,-0.09,-1.01,1.4,-1.07,0.13,24.72,-3.22,38.66,1
21911,0.06,-0.09,-1.01,1.36,-1.07,0.18,24.72,-3.22,38.66,1
21925,0.06,-0.09,-1.01,1.51,-1.0,0.32,24.69,-3.35,38.61,1
21935,0.06,-0.09,-1.01,1.53,-0.97,0.28,24.69,-3.35,38.61,1
21947,0.06,-0.09,-1.01,1.59,-0.82,0.14,24.69,-3.35,38.61,1
21958,0.05,-0.09,-1.01,1.6,-0.76,0.16,24.69,-3.35,38.61,1
21970,0.05,-0.09,-1.01,1.55,-0.77,0.14,24.69,-3.35,38.61,1
21982,0.05,-0.09,-1.01,1.2,-0.89,-0.04,24.61,-3.31,38.66,1
21993,0.05,-0.09,-1.01,1.13,-0.92,-0.16,24.61,-3.31,38.66,1
22005,0.05,-0.09,-1.01,1.19,-0.97,-0.2,24.61,-3.31,38.66,1
22016,0.05,-0.09,-1.01,1.75,-0.99,-0.09,24.61,-3.31,38.66,1
22028,0.05,-0.09,-1.01,1.9,-0.99,-0.05,24.65,-3.34,38.58,1
22040,0.05,-0.09,-1.01,1.93,-0.97,-0.01,24.65,-3.34,38.58,1
22052,0.05,-0.09,-1.01,1.67,-1.04,-0.09,24.65,-3.34,38.58,1
22064,0.05,-0.09,-1.01,1.56,-1.08,-0.1,24.65,-3.34,38.58,1
22075,0.05,-0.09,-1.01,1.53,-1.08,-0.06,24.65,-3.24,38.58,1
22087,0.05,-0.09,-1.01,1.54,-1.19,0.02,24.65,-3.24,38.58,1
22099,0.05,-0.09,-1.01,1.45,-1.2,-0.01,24.65,-3.24,38.58,1
22112,0.06,-0.09,-1.01,1.4,-1.23,-0.07,24.65,-3.24,38.58,1
22124,0.06,-0.09,-1.01,1.41,-1.22,-0.08,24.65,-3.23,38.63,1
22136,0.06,-0.09,-1.01,1.82,-1.07,0.01,24.65,-3.23,38.63,1
22148,0.06,-0.09,-1.01,2.02,-0.97,0.09,24.65,-3.23,38.63,1
22159,0.06,-0.09,-1.01,2.01,-1.01,0.11,24.65,-3.23,38.63,1
22171,0.06,-0.09,-1.01,1.51,-1.22,-0.08,24.65,-3.23,38.63,1
22183,0.06,-0.09,-1.01,1.27,-1.27,-0.13,24.48,-3.13,38.7,1
22194,0.06,-0.09,-1.01,1.26,-1.25,-0.14,24.48,-3.13,38.7,1
22207,0.06,-0.09,-1.01,1.56,-1.29,-0.09,24.48,-3.13,38.7,1
22217,0.05,-0.09,-1.01,1.54,-1.34,-0.09,24.48,-3.13,38.7,1
22228,0.05,-0.09,-1.01,1.42,-1.33,-0.12,24.45,-3.04,38.87,1
22241,0.05,-0.09,-1.01,1.59,-1.18,-0.13,24.45,-3.04,38.87,1
22252,0.05,-0.09,-1.01,1.79,-1.04,-0.05,24.45,-3.04,38.87,1
22263,0.05,-0.09,-1.01,1.98,-1.01,0.02,24.45,-3.04,38.87,1
22276,0.05,-0.09,-1.01,1.94,-1.12,0.06,24.56,-2.98,38.59,1
22288,0.05,-0.09,-1.01,1.71,-1.21,0.03,24.56,-2.98,38.59,1
22302,0.06,-0.09,-1.01,1.27,-1.39,-0.12,24.56,-2.98,38.59,1
22314,0.06,-0.09,-1.01,1.21,-1.39,-0.18,24.56,-2.98,38.59,1
22325,0.06,-0.09,-1.01,1.34,-1.34,-0.18,24.51,-3.07,38.74,1
22336,0.06,-0.09,-1.01,1.49,-1.29,-0.09,24.51,-3.07,38.74,1
22348,0.06,-0.09,-1.01,1.57,-1.25,-0.11,24.51,-3.07,38.74,1
22361,0.06,-0.09,-1.01,1.77,-1.0,-0.27,24.51,-3.07,38.74,1
22372,0.06,-0.09,-1.01,2.05,-0.85,-0.21,24.51,-3.07,38.74,1
22383,0.06,-0.09,-1.01,2.26,-0.77,-0.08,24.45,-3.07,38.76,1
22394,0.06,-0.09,-1.01,2.2,-0.9,-0.11,24.45,-3.07,38.76,1
22405,0.06,-0.09,-1.01,1.99,-1.0,-0.18,24.45,-3.07,38.76,1
22417,0.06,-0.09,-1.01,1.74,-1.13,-0.22,24.45,-3.07,38.76,1
22430,0.06,-0.09,-1.01,1.45,-1.23,-0.25,24.51,-3.08,38.54,1
22442,0.06,-0.09,-1.01,1.44,-1.2,-0.22,24.51,-3.08,38.54,1
22456,0.06,-0.09,-1.01,1.74,-1.0,-0.11,24.51,-3.08,38.54,1
22468,0.05,-0.09,-1.01,1.9,-0.93,-0.04,24.51,-3.08,38.54,1
22480,0.05,-0.09,-1.01,1.92,-0.77,0.03,24.49,-3.11,38.51,1
22491,0.05,-0.09,-1.01,1.87,-0.78,0.02,24.49,-3.11,38.51,1
22502,0.05,-0.09,-1.01,1.84,-0.82,0.06,24.49,-3.11,38.51,1
22516,0.05,-0.09,-1.01,1.78,-0.92,0.18,24.49,-3.11,38.51,1
22527,0.05,-0.09,-1.01,1.71,-0.93,0.21,24.4,-3.09,38.69,1
22540,0.05,-0.09,-1.01,1.36,-1.18,0.06,24.4,-3.09,38.69,1
22551,0.05,-0.09,-1.01,1.18,-1.3,-0.04,24.4,-3.09,38.69,1
22563,0.06,-0.09,-1.01,1.18,-1.3,-0.1,24.4,-3.09,38.69,1
22574,0.06,-0.09,-1.01,1.46,-1.17,-0.06,24.48,-3.13,38.61,1
22585,0.06,-0.09,-1.01,1.9,-1.05,0.02,24.48,-3.13,38.61,1
22597,0.06,-0.09,-1.01,2.21,-0.99,0.06,24.48,-3.13,38.61,1
22607,0.06,-0.09,-1.01,2.19,-1.03,-0.01,24.48,-3.13,38.61,1
22619,0.06,-0.09,-1.01,1.4,-1.21,-0.45,24.48,-3.13,38.61,1
22630,0.06,-0.09,-1.01,1.24,-1.28,-0.57,24.51,-3.27,38.51,1
22641,0.06,-0.09,-1.01,1.36,-1.28,-0.5,24.51,-3.27,38.51,1
22654,0.06,-0.09,-1.01,1.96,-1.24,-0.12,24.51,-3.27,38.51,1
22665,0.05,-0.09,-1.01,2.07,-1.22,-0.04,24.51,-3.27,38.51,1
22678,0.05,-0.09,-1.01,1.95,-1.01,-0.08,24.45,-3.29,38.48,1
22689,0.05,-0.09,-1.01,1.98,-0.91,-0.03,24.45,-3.29,38.48,1
22701,0.05,-0.09,-1.01,2.05,-0.76,0.1,24.45,-3.29,38.48,1
22712,0.05,-0.09,-1.01,2.14,-0.78,0.18,24.45,-3.29,38.48,1
22723,0.05,-0.09,-1.01,1.93,-0.95,0.16,24.58,-3.32,38.56,1
22734,0.05,-0.09,-1.01,1.59,-1.14,0.09,24.58,-3.32,38.56,1
22746,0.05,-0.09,-1.01,1.06,-1.42,0.06,24.58,-3.32,38.56,1
22757,0.06,-0.09,-1.01,1.12,-1.36,0.11,24.58,-3.32,38.56,1
22769,0.05,-0.09,-1.01,1.31,-1.28,0.14,24.58,-3.32,38.56,1
22782,0.05,-0.09,-1.01,1.48,-1.16,0.24,24.61,-3.3,38.65,1
22794,0.05,-0.09,-1.01,1.33,-1.2,0.2,24.61,-3.3,38.65,1
22804,0.06,-0.09,-1.01,1.18,-1.29,0.16,24.61,-3.3,38.65,1
22815,0.06,-0.09,-1.01,1.66,-1.2,0.15,24.61,-3.3,38.65,1
22827,0.06,-0.09,-1.01,2.11,-1.1,0.25,24.55,-3.27,38.66,1
22839,0.06,-0.09,-1.01,2.43,-1.04,0.35,24.55,-3.27,38.66,1
22850,0.06,-0.09,-1.01,2.43,-1.16,0.29,24.55,-3.27,38.66,1
22862,0.06,-0.09,-1.01,2.42,-1.29,0.23,24.55,-3.27,38.66,1
22873,0.06,-0.09,-1.01,2.52,-1.45,0.16,24.68,-3.24,38.64,1
22885,0.06,-0.09,-1.01,2.57,-1.34,0.09,24.68,-3.24,38.64,1
22897,0.05,-0.09,-1.01,2.39,-1.3,-0.0,24.68,-3.24,38.64,1
22911,0.06,-0.09,-1.01,1.8,-1.32,-0.06,24.68,-3.24,38.64,1
22924,0.06,-0.09,-1.01,1.74,-1.23,-0.21,24.65,-3.22,38.74,1
22937,0.06,-0.09,-1.01,1.75,-0.97,-0.22,24.65,-3.22,38.74,1
22949,0.06,-0.09,-1.01,1.71,-0.87,-0.09,24.65,-3.22,38.74,1
22963,0.06,-0.09,-1.01,1.5,-0.9,0.06,24.65,-3.22,38.74,1
22974,0.06,-0.09,-1.01,1.3,-0.92,-0.01,24.66,-3.23,38.76,1
22986,0.06,-0.09,-1.01,1.28,-0.94,-0.1,24.66,-3.23,38.76,1
22998,0.06,-0.09,-1.01,1.34,-0.95,-0.13,24.66,-3.23,38.76,1
23010,0.06,-0.09,-1.01,1.29,-0.98,-0.16,24.66,-3.23,38.76,1
23020,0.06,-0.09,-1.01,1.21,-0.99,-0.24,24.66,-3.23,38.76,1
23033,0.06,-0.09,-1.01,1.01,-1.02,-0.31,24.66,-3.31,38.68,1
23045,0.05,-0.09,-1.01,1.06,-1.05,-0.27,24.66,-3.31,38.68,1
23057,0.05,-0.09,-1.01,1.43,-0.98,-0.08,24.66,-3.31,38.68,1
23069,0.05,-0.09,-1.01,1.52,-0.95,-0.02,24.66,-3.31,38.68,1
23080,0.05,-0.09,-1.01,1.45,-0.95,0.01,24.59,-3.39,38.8,1
23092,0.05,-0.09,-1.01,1.2,-0.99,-0.04,24.59,-3.39,38.8,1
23103,0.05,-0.09,-1.01,1.14,-0.99,-0.01,24.59,-3.39,38.8,1
23114,0.05,-0.09,-1.01,1.1,-1.03,0.01,24.59,-3.39,38.8,1
23126,0.05,-0.09,-1.01,1.13,-1.11,0.02,24.59,-3.34,38.87,1
23138,0.05,-0.09,-1.01,1.22,-1.2,0.03,24.59,-3.34,38.87,1
23152,0.06,-0.09,-1.01,1.39,-1.31,0.06,24.59,-3.34,38.87,1
23164,0.06,-0.09,-1.01,1.49,-1.33,0.02,24.59,-3.34,38.87,1
23176,0.06,-0.09,-1.01,1.56,-1.57,-0.01,24.63,-3.3,38.89,1
23187,0.06,-0.09,-1.01,1.47,-1.68,-0.03,24.63,-3.3,38.89,1
23199,0.06,-0.09,-1.01,1.35,-1.65,-0.13,24.63,-3.3,38.89,1
23210,0.06,-0.09,-1.01,1.27,-1.53,-0.16,24.63,-3.3,38.89,1
23222,0.06,-0.09,-1.01,1.24,-1.53,-0.08,24.51,-3.47,38.78,1
23234,0.06,-0.09,-1.0,1.08,-1.53,-0.05,24.51,-3.47,38.78,1
23246,0.06,-0.09,-1.01,0.82,-1.4,-0.23,24.51,-3.47,38.78,1
23258,0.06,-0.09,-1.01,1.04,-1.32,-0.23,24.51,-3.47,38.78,1
23273,0.06,-0.09,-1.01,1.85,-1.09,0.07,24.37,-3.46,38.75,1
23284,0.06,-0.09,-1.01,2.09,-1.07,0.21,24.37,-3.46,38.75,1
23298,0.06,-0.09,-1.01,1.71,-1.24,0.19,24.37,-3.46,38.75,1
23310,0.06,-0.09,-1.01,1.37,-1.35,0.15,24.37,-3.46,38.75,1
23320,0.06,-0.09,-1.01,1.15,-1.43,0.2,24.37,-3.46,38.75,1
23333,0.06,-0.09,-1.01,1.13,-1.49,0.26,24.47,-3.36,38.68,1
23344,0.06,-0.09,-1.01,1.19,-1.46,0.24,24.47,-3.36,38.68,1
23358,0.06,-0.09,-1.0,1.4,-1.31,0.2,24.47,-3.36,38.68,1
23370,0.06,-0.09,-1.0,1.51,-1.29,0.22,24.47,-3.36,38.68,1
23382,0.06,-0.09,-1.0,1.58,-1.4,0.38,24.53,-3.43,38.68,1
23393,0.06,-0.09,-1.0,1.33,-1.52,0.38,24.53,-3.43,38.68,1
23404,0.06,-0.09,-1.01,0.83,-1.75,0.27,24.53,-3.43,38.68,1
23415,0.06,-0.09,-1.01,0.24,-1.97,-0.03,24.53,-3.43,38.68,1
23428,0.06,-0.09,-1.01,-0.38,-2.33,-0.36,24.49,-3.47,38.6,1
23440,0.06,-0.09,-1.01,-0.28,-2.43,-0.35,24.49,-3.47,38.6,1
23452,0.06,-0.1,-1.01,0.57,-2.25,-0.29,24.49,-3.47,38.6,1
23464,0.06,-0.09,-1.01,1.21,-1.81,-0.21,24.49,-3.47,38.6,1
23475,0.06,-0.1,-1.01,1.78,-1.37,-0.22,24.44,-3.34,38.59,1
23487,0.06,-0.09,-1.01,2.12,-1.06,0.1,24.44,-3.34,38.59,1
23499,0.06,-0.09,-1.01,1.81,-1.18,0.16,24.44,-3.34,38.59,1
23509,0.06,-0.09,-1.01,1.21,-1.35,0.04,24.44,-3.34,38.59,1
23522,0.06,-0.1,-1.01,0.34,-1.56,-0.48,24.43,-3.2,38.61,1
23534,0.06,-0.1,-1.01,0.48,-1.55,-0.51,24.43,-3.2,38.61,1
23545,0.06,-0.1,-1.01,1.23,-1.47,-0.22,24.43,-3.2,38.61,1
23556,0.06,-0.1,-1.01,1.59,-1.42,-0.19,24.43,-3.2,38.61,1
23568,0.06,-0.1,-1.01,1.79,-1.29,-0.21,24.43,-3.2,38.61,1
23581,0.06,-0.1,-1.0,1.86,-1.14,-0.2,24.42,-3.11,38.64,1
23593,0.06,-0.09,-1.0,1.72,-1.17,-0.17,24.42,-3.11,38.64,1
23606,0.06,-0.09,-1.01,1.37,-1.39,-0.23,24.42,-3.11,38.64,1
23617,0.06,-0.09,-1.01,1.35,-1.47,-0.27,24.42,-3.11,38.64,1
23628,0.06,-0.09,-1.01,1.43,-1.55,-0.27,24.48,-3.15,38.85,1
23639,0.06,-0.09,-1.01,1.43,-1.62,-0.33,24.48,-3.15,38.85,1
23650,0.06,-0.09,-1.01,1.33,-1.6,-0.45,24.48,-3.15,38.85,1
23662,0.06,-0.09,-1.01,1.31,-1.46,-0.55,24.48,-3.15,38.85,1
23675,0.06,-0.09,-1.01,1.75,-1.04,-0.31,24.54,-3.0,38.82,1
23687,0.06,-0.09,-1.01,2.09,-0.95,-0.16,24.54,-3.0,38.82,1
23699,0.06,-0.09,-1.01,2.49,-0.91,0.02,24.54,-3.0,38.82,1
23710,0.06,-0.09,-1.01,2.57,-0.82,0.13,24.54,-3.0,38.82,1
23721,0.06,-0.09,-1.01,2.58,-0.72,0.15,24.54,-3.1,38.8,1
23732,0.06,-0.09,-1.01,2.55,-0.6,0.16,24.54,-3.1,38.8,1
23744,0.06,-0.09,-1.0,2.53,-0.6,0.26,24.54,-3.1,38.8,1
23754,0.06,-0.09,-1.0,2.47,-0.68,0.35,24.54,-3.1,38.8,1
23764,0.06,-0.09,-1.0,2.21,-0.87,0.37,24.54,-3.1,38.8,1
23775,0.06,-0.09,-1.0,1.8,-1.07,0.27,24.47,-3.05,38.88,1
23787,0.06,-0.09,-1.01,1.29,-1.4,0.08,24.47,-3.05,38.88,1
23799,0.06,-0.09,-1.01,1.35,-1.43,0.06,24.47,-3.05,38.88,1
23809,0.06,-0.09,-1.01,1.55,-1.41,0.09,24.47,-3.05,38.88,1
23821,0.06,-0.09,-1.01,1.8,-1.28,0.04,24.42,-3.13,38.71,1
23832,0.06,-0.09,-1.01,1.81,-1.17,0.03,24.42,-3.13,38.71,1
23843,0.06,-0.09,-1.01,1.76,-1.05,0.02,24.42,-3.13,38.71,1
23853,0.06,-0.09,-1.01,1.75,-0.96,0.03,24.42,-3.13,38.71,1
23865,0.06,-0.09,-1.01,1.47,-1.02,-0.21,24.42,-3.13,38.71,1
23876,0.06,-0.09,-1.01,1.3,-1.17,-0.3,24.4,-3.29,38.78,1
23890,0.06,-0.09,-1.01,1.42,-1.39,-0.19,24.4,-3.29,38.78,1
23900,0.06,-0.09,-1.01,1.71,-1.36,-0.04,24.4,-3.29,38.78,1
23911,0.06,-0.09,-1.01,2.0,-1.26,0.08,24.4,-3.29,38.78,1
23924,0.06,-0.09,-1.01,2.1,-1.0,0.14,24.4,-3.28,38.92,1
23936,0.06,-0.09,-1.01,1.92,-1.02,0.12,24.4,-3.28,38.92,1
23950,0.06,-0.09,-1.01,1.7,-1.22,0.2,24.4,-3.28,38.92,1
23961,0.06,-0.09,-1.01,1.84,-1.24,0.3,24.4,-3.28,38.92,1
23973,0.06,-0.09,-1.01,1.95,-1.19,0.38,24.47,-3.17,38.92,1
23985,0.06,-0.09,-1.01,1.73,-1.27,0.21,24.47,-3.17,38.92,1
23995,0.06,-0.09,-1.01,1.46,-1.26,0.04,24.47,-3.17,38.92,1
24006,0.06,-0.09,-1.01,1.3,-1.24,0.02,24.47,-3.17,38.92,1
24018,0.06,-0.09,-1.01,1.19,-1.18,0.01,24.47,-3.17,38.92,1
24029,0.06,-0.09,-1.01,1.2,-1.08,-0.05,24.48,-3.21,39.05,1
24040,0.06,-0.09,-1.01,1.29,-1.02,-0.12,24.48,-3.21,39.05,1
24053,0.06,-0.09,-1.01,1.78,-0.94,-0.08,24.48,-3.21,39.05,1
24064,0.06,-0.09,-1.01,2.11,-0.89,0.08,24.48,-3.21,39.05,1
24075,0.06,-0.09,-1.01,2.27,-0.92,0.27,24.52,-3.2,39.19,1
24086,0.06,-0.09,-1.0,1.64,-1.09,0.1,24.52,-3.2,39.19,1
24097,0.06,-0.09,-1.01,1.13,-1.16,-0.14,24.52,-3.2,39.19,1
24109,0.06,-0.09,-1.01,0.93,-1.21,-0.19,24.52,-3.2,39.19,1
24119,0.06,-0.09,-1.01,1.04,-1.24,-0.07,24.52,-3.2,39.19,1
24132,0.06,-0.09,-1.01,1.39,-1.25,0.19,24.6,-3.19,39.18,1
24144,0.06,-0.09,-1.01,1.4,-1.16,0.2,24.6,-3.19,39.18,1
24155,0.06,-0.09,-1.01,1.22,-1.08,0.11,24.6,-3.19,39.18,1
24166,0.06,-0.1,-1.01,1.3,-1.07,0.06,24.6,-3.19,39.18,1
24177,0.06,-0.1,-1.01,1.47,-0.98,0.06,24.65,-3.25,39.01,1
24191,0.06,-0.1,-1.01,1.61,-0.98,0.02,24.65,-3.25,39.01,1
24202,0.06,-0.1,-1.01,1.5,-1.09,-0.07,24.65,-3.25,39.01,1
24216,0.06,-0.09,-1.01,1.07,-1.26,-0.28,24.65,-3.25,39.01,1
24227,0.06,-0.09,-1.0,0.91,-1.3,-0.23,24.62,-3.32,39.06,1
24239,0.06,-0.09,-1.0,0.89,-1.39,-0.21,24.62,-3.32,39.06,1
24251,0.06,-0.09,-1.0,1.08,-1.42,-0.2,24.62,-3.32,39.06,1
24263,0.06,-0.09,-1.0,1.34,-1.31,-0.18,24.62,-3.32,39.06,1
24275,0.06,-0.09,-1.0,1.92,-1.16,-0.01,24.63,-3.4,39.01,1
24286,0.06,-0.09,-1.01,2.05,-1.14,-0.02,24.63,-3.4,39.01,1
24298,0.06,-0.09,-1.01,2.07,-1.01,-0.07,24.63,-3.4,39.01,1
24309,0.06,-0.09,-1.01,1.97,-0.81,-0.07,24.63,-3.4,39.01,1
24321,0.06,-0.09,-1.01,1.79,-0.86,-0.04,24.59,-3.29,39.14,1
24333,0.06,-0.09,-1.01,1.54,-0.91,-0.05,24.59,-3.29,39.14,1
24345,0.06,-0.1,-1.01,1.12,-0.93,-0.11,24.59,-3.29,39.14,1
24357,0.06,-0.1,-1.01,1.14,-0.99,-0.12,24.59,-3.29,39.14,1
24372,0.06,-0.1,-1.0,1.68,-0.86,-0.06,24.56,-3.3,38.81,1
24384,0.06,-0.09,-1.0,1.96,-0.82,0.06,24.56,-3.3,38.81,1
24395,0.06,-0.09,-1.0,1.76,-1.03,0.14,24.56,-3.3,38.81,1
24406,0.06,-0.09,-1.0,1.43,-1.18,0.12,24.56,-3.3,38.81,1
24418,0.06,-0.09,-1.0,1.15,-1.3,0.07,24.56,-3.3,38.81,1
24431,0.06,-0.1,-1.01,1.11,-1.42,0.01,24.5,-3.37,38.81,1
24443,0.06,-0.1,-1.01,1.3,-1.38,-0.05,24.5,-3.37,38.81,1
24453,0.06,-0.1,-1.01,1.52,-1.33,-0.04,24.5,-3.37,38.81,1
24464,0.06,-0.09,-1.01,1.73,-1.17,0.02,24.5,-3.37,38.81,1
24476,0.06,-0.09,-1.01,1.67,-1.11,-0.06,24.44,-3.36,38.84,1
24488,0.06,-0.09,-1.01,1.51,-1.07,-0.21,24.44,-3.36,38.84,1
24500,0.06,-0.09,-1.01,1.42,-0.89,-0.27,24.44,-3.36,38.84,1
24512,0.06,-0.09,-1.01,1.58,-0.87,-0.2,24.44,-3.36,38.84,1
24524,0.06,-0.09,-1.01,1.67,-0.94,-0.16,24.52,-3.3,38.74,1
24535,0.06,-0.09,-1.0,1.51,-1.04,-0.19,24.52,-3.3,38.74,1
24547,0.06,-0.09,-1.0,1.31,-1.13,-0.24,24.52,-3.3,38.74,1
24558,0.06,-0.09,-1.0,1.44,-1.31,-0.15,24.52,-3.3,38.74,1
24570,0.06,-0.09,-1.0,1.69,-1.34,0.03,24.42,-3.4,38.9,1
24582,0.06,-0.09,-1.0,1.8,-1.34,0.2,24.42,-3.4,38.9,1
24593,0.06,-0.09,-1.01,1.39,-1.56,0.18,24.42,-3.4,38.9,1
24604,0.06,-0.09,-1.01,1.0,-1.65,0.14,24.42,-3.4,38.9,1
24616,0.06,-0.09,-1.01,0.67,-1.69,0.04,24.42,-3.4,38.9,1
24628,0.06,-0.09,-1.01,0.69,-1.65,0.01,24.31,-3.34,39.13,1
24640,0.06,-0.09,-1.01,0.91,-1.61,0.1,24.31,-3.34,39.13,1
24653,0.06,-0.09,-1.01,1.25,-1.37,0.28,24.31,-3.34,39.13,1
24664,0.06,-0.09,-1.01,1.21,-1.32,0.25,24.31,-3.34,39.13,1
24675,0.06,-0.09,-1.01,0.99,-1.33,0.14,24.31,-3.24,39.06,1
24688,0.06,-0.1,-1.0,0.7,-1.37,0.0,24.31,-3.24,39.06,1
24700,0.06,-0.1,-1.0,0.78,-1.38,0.11,24.31,-3.24,39.06,1
24713,0.06,-0.1,-1.0,1.34,-1.46,0.3,24.31,-3.24,39.06,1
24725,0.06,-0.1,-1.0,1.66,-1.41,0.34,24.32,-3.21,39.04,1
24736,0.06,-0.1,-1.01,1.92,-1.33,0.33,24.32,-3.21,39.04,1
24748,0.06,-0.1,-1.01,1.85,-1.12,0.19,24.32,-3.21,39.04,1
24759,0.06,-0.1,-1.01,1.64,-1.1,0.14,24.32,-3.21,39.04,1
24770,0.06,-0.1,-1.01,1.47,-1.1,0.09,24.29,-3.29,39.16,1
24783,0.06,-0.1,-1.01,1.44,-0.96,-0.03,24.29,-3.29,39.16,1
24794,0.06,-0.1,-1.01,1.49,-0.95,-0.12,24.29,-3.29,39.16,1
24805,0.06,-0.1,-1.01,1.48,-1.01,-0.17,24.29,-3.29,39.16,1
24818,0.06,-0.1,-1.01,1.32,-1.23,-0.29,24.29,-3.29,39.16,1
24829,0.06,-0.1,-1.01,1.41,-1.24,-0.38,24.32,-3.26,39.2,1
24841,0.06,-0.1,-1.01,2.03,-0.96,-0.4,24.32,-3.26,39.2,1
24853,0.06,-0.1,-1.01,2.28,-0.84,-0.38,24.32,-3.26,39.2,1
24865,0.06,-0.1,-1.01,2.36,-0.8,-0.35,24.32,-3.26,39.2,1
24878,0.06,-0.09,-1.01,2.06,-0.86,-0.22,24.36,-3.3,39.08,1
24890,0.06,-0.09,-1.01,1.89,-0.87,-0.2,24.36,-3.3,39.08,1
24903,0.06,-0.09,-1.01,1.79,-0.95,-0.16,24.36,-3.3,39.08,1
24914,0.06,-0.09,-1.01,1.79,-1.01,-0.11,24.36,-3.3,39.08,1
24925,0.06,-0.09,-1.01,1.81,-1.01,-0.04,24.49,-3.27,39.28,1
24936,0.06,-0.09,-1.01,1.71,-0.98,0.04,24.49,-3.27,39.28,1
24947,0.06,-0.09,-1.01,1.77,-0.87,0.07,24.49,-3.27,39.28,1
24959,0.06,-0.09,-1.01,1.89,-0.79,0.14,24.49,-3.27,39.28,1
24970,0.06,-0.09,-1.01,2.06,-0.74,0.24,24.53,-3.28,38.97,1
24981,0.06,-0.09,-1.01,2.21,-0.69,0.34,24.53,-3.28,38.97,1
24993,0.06,-0.09,-1.01,2.1,-0.62,0.34,24.53,-3.28,38.97,1
25006,0.06,-0.09,-1.01,1.7,-0.8,0.37,24.53,-3.28,38.97,1
25018,0.06,-0.09,-1.01,1.52,-0.96,0.44,24.53,-3.28,38.97,1
25029,0.06,-0.09,-1.01,1.38,-1.09,0.42,24.42,-3.29,38.88,1
25041,0.06,-0.09,-1.01,1.39,-1.26,0.4,24.42,-3.29,38.88,1
25053,0.06,-0.1,-1.01,1.42,-1.33,0.49,24.42,-3.29,38.88,1
25063,0.06,-0.1,-1.01,1.41,-1.39,0.55,24.42,-3.29,38.88,1
25076,0.06,-0.1,-1.01,1.55,-1.28,0.43,24.39,-3.21,38.9,1
25088,0.06,-0.1,-1.01,1.62,-1.04,0.31,24.39,-3.21,38.9,1
25098,0.06,-0.1,-1.01,1.78,-0.8,0.16,24.39,-3.21,38.9,1
25110,0.06,-0.09,-1.01,2.01,-0.61,0.09,24.39,-3.21,38.9,1
25121,0.06,-0.09,-1.01,1.92,-0.73,0.1,24.33,-3.28,38.88,1
25131,0.06,-0.09,-1.01,1.63,-0.94,0.04,24.33,-3.28,38.88,1
25141,0.06,-0.09,-1.01,1.37,-1.19,-0.01,24.33,-3.28,38.88,1
25153,0.06,-0.09,-1.01,1.5,-1.29,0.11,24.33,-3.28,38.88,1
25163,0.06,-0.09,-1.0,1.73,-1.28,0.23,24.33,-3.28,38.88,1
25174,0.06,-0.09,-1.0,1.78,-1.3,0.29,24.36,-3.19,38.88,1
25185,0.06,-0.09,-1.0,1.21,-1.56,0.19,24.36,-3.19,38.88,1
25196,0.06,-0.1,-1.0,0.89,-1.67,0.15,24.36,-3.19,38.88,1
25208,0.06,-0.1,-1.01,0.8,-1.74,0.15,24.36,-3.19,38.88,1
25219,0.06,-0.1,-1.01,0.92,-1.7,0.17,24.34,-3.19,38.58,1
25230,0.06,-0.1,-1.01,1.2,-1.61,0.24,24.34,-3.19,38.58,1
25241,0.07,-0.1,-1.01,1.46,-1.54,0.25,24.34,-3.19,38.58,1
25252,0.07,-0.1,-1.01,1.56,-1.52,0.24,24.34,-3.19,38.58,1
25264,0.07,-0.1,-1.01,1.39,-1.54,-0.01,24.34,-3.19,38.58,1
25275,0.07,-0.1,-1.01,1.31,-1.49,-0.15,24.41,-3.2,38.53,1
25285,0.07,-0.1,-1.01,1.17,-1.43,-0.23,24.41,-3.2,38.53,1
25298,0.07,-0.1,-1.01,0.88,-1.47,-0.36,24.41,-3.2,38.53,1
25309,0.07,-0.1,-1.01,0.71,-1.45,-0.47,24.41,-3.2,38.53,1
25320,0.06,-0.1,-1.01,0.64,-1.36,-0.61,24.48,-3.15,38.52,1
25331,0.06,-0.1,-1.01,0.76,-1.04,-0.76,24.48,-3.15,38.52,1
25342,0.06,-0.1,-1.0,0.84,-0.89,-0.74,24.48,-3.15,38.52,1
25354,0.06,-0.1,-1.0,1.03,-0.86,-0.62,24.48,-3.15,38.52,1
25367,0.06,-0.1,-1.0,1.73,-0.83,-0.29,24.48,-3.15,38.52,1
25379,0.06,-0.09,-1.0,2.16,-0.84,-0.16,24.45,-3.04,38.56,1
25392,0.06,-0.09,-1.0,2.65,-0.8,-0.01,24.45,-3.04,38.56,1
25403,0.06,-0.09,-1.0,2.67,-0.92,0.07,24.45,-3.04,38.56,1
25413,0.06,-0.09,-1.0,2.51,-1.11,0.22,24.45,-3.04,38.56,1
25424,0.06,-0.09,-1.0,2.21,-1.31,0.32,24.53,-2.9,38.63,1
25436,0.06,-0.09,-1.01,1.67,-1.44,0.36,24.53,-2.9,38.63,1
25447,0.06,-0.09,-1.01,1.6,-1.39,0.37,24.53,-2.9,38.63,1
25458,0.06,-0.09,-1.01,1.61,-1.38,0.41,24.53,-2.9,38.63,1
25471,0.06,-0.09,-1.01,1.58,-1.39,0.4,24.56,-2.9,38.85,1
25481,0.06,-0.09,-1.01,1.37,-1.42,0.37,24.56,-2.9,38.85,1
25492,0.06,-0.09,-1.01,1.07,-1.34,0.26,24.56,-2.9,38.85,1
25505,0.06,-0.1,-1.01,0.82,-1.22,0.04,24.56,-2.9,38.85,1
25515,0.06,-0.1,-1.01,0.86,-1.17,0.06,24.56,-2.9,38.85,1
25526,0.06,-0.1,-1.01,0.91,-1.19,0.02,24.52,-2.98,39.0,1
25536,0.06,-0.1,-1.01,0.89,-1.27,-0.04,24.52,-2.98,39.0,1
25548,0.06,-0.1,-1.0,0.63,-1.34,-0.23,24.52,-2.98,39.0,1
25558,0.06,-0.1,-1.0,0.61,-1.39,-0.27,24.52,-2.98,39.0,1
25569,0.06,-0.1,-1.0,0.83,-1.39,-0.2,24.49,-2.94,39.13,1
25580,0.06,-0.1,-1.0,1.56,-1.35,0.19,24.49,-2.94,39.13,1
25591,0.07,-0.1,-1.0,1.77,-1.28,0.29,24.49,-2.94,39.13,1
25603,0.07,-0.1,-1.01,1.82,-1.27,0.25,24.49,-2.94,39.13,1
25613,0.07,-0.1,-1.01,1.62,-1.2,0.01,24.49,-2.94,39.13,1
25626,0.07,-0.11,-1.02,1.05,-0.91,-0.76,24.34,-2.96,39.21,1
25636,0.07,-0.11,-1.02,0.97,-0.71,-1.09,24.34,-2.96,39.21,1
25649,0.07,-0.11,-1.02,1.2,-0.32,-1.5,24.34,-2.96,39.21,1
25660,0.07,-0.11,-1.01,1.41,-0.16,-1.57,24.34,-2.96,39.21,1
25671,0.06,-0.1,-1.01,1.57,-0.07,-1.52,24.25,-2.99,39.27,1
25684,0.06,-0.1,-1.0,1.53,-0.01,-1.46,24.25,-2.99,39.27,1
25695,0.06,-0.1,-1.0,1.14,-0.1,-1.54,24.25,-2.99,39.27,1
25706,0.06,-0.1,-1.0,0.89,-0.3,-1.4,24.25,-2.99,39.27,1
25718,0.06,-0.1,-1.0,1.42,-0.69,-1.05,24.31,-2.99,39.39,1
25729,0.06,-0.1,-1.0,1.69,-0.72,-0.92,24.31,-2.99,39.39,1
25739,0.06,-0.1,-1.0,1.99,-0.71,-0.75,24.31,-2.99,39.39,1
25750,0.05,-0.1,-1.0,2.24,-0.7,-0.55,24.31,-2.99,39.39,1
25763,0.05,-0.09,-1.0,2.09,-0.73,-0.28,24.31,-2.99,39.39,1
25774,0.05,-0.09,-1.0,1.86,-0.81,-0.34,24.32,-3.03,39.45,1
25787,0.05,-0.1,-1.0,1.84,-0.95,-0.16,24.32,-3.03,39.45,1
25798,0.06,-0.09,-1.0,2.05,-1.12,0.11,24.32,-3.03,39.45,1
25808,0.06,-0.09,-1.0,2.3,-1.27,0.31,24.32,-3.03,39.45,1
25819,0.06,-0.09,-1.0,2.39,-1.38,0.43,24.36,-3.11,39.58,1
25831,0.06,-0.1,-1.0,2.24,-1.54,0.43,24.36,-3.11,39.58,1
25841,0.06,-0.1,-1.0,2.21,-1.58,0.43,24.36,-3.11,39.58,1
25851,0.06,-0.1,-1.0,2.31,-1.52,0.51,24.36,-3.11,39.58,1
25861,0.06,-0.1,-1.0,2.44,-1.46,0.68,24.36,-3.11,39.58,1
25874,0.06,-0.1,-1.01,2.7,-1.48,1.07,24.43,-3.1,39.4,1
25884,0.06,-0.09,-1.01,2.63,-1.55,1.11,24.43,-3.1,39.4,1
25895,0.06,-0.09,-1.01,2.39,-1.56,0.97,24.43,-3.1,39.4,1
25906,0.06,-0.09,-1.02,1.84,-1.49,0.6,24.43,-3.1,39.4,1
25918,0.06,-0.09,-1.01,1.76,-1.39,0.58,24.42,-3.06,39.42,1
25930,0.06,-0.09,-1.01,1.76,-1.29,0.68,24.42,-3.06,39.42,1
25942,0.06,-0.09,-1.01,1.71,-1.09,0.82,24.42,-3.06,39.42,1
25954,0.06,-0.09,-1.0,1.67,-1.08,0.85,24.42,-3.06,39.42,1
25967,0.06,-0.1,-1.0,1.7,-1.06,0.86,24.49,-2.99,39.28,1
25978,0.06,-0.1,-1.0,1.79,-1.14,0.87,24.49,-2.99,39.28,1
25988,0.06,-0.1,-1.0,1.92,-1.25,0.92,24.49,-2.99,39.28,1
25998,0.06,-0.1,-1.0,2.09,-1.44,0.99,24.49,-2.99,39.28,1
26008,0.06,-0.11,-1.0,2.27,-1.62,1.03,24.49,-2.99,39.28,1
26021,0.06,-0.11,-1.01,2.73,-1.67,1.02,24.5,-3.07,39.2,1
26031,0.06,-0.11,-1.01,2.89,-1.65,0.95,24.5,-3.07,39.2,1
26041,0.06,-0.11,-1.01,2.97,-1.58,0.81,24.5,-3.07,39.2,1
26051,0.07,-0.11,-1.02,3.0,-1.54,0.66,24.5,-3.07,39.2,1
26063,0.07,-0.12,-1.02,2.92,-1.44,0.19,24.5,-3.07,39.2,1
26074,0.07,-0.12,-1.02,2.92,-1.35,-0.08,24.51,-3.07,39.17,1
26084,0.07,-0.12,-1.02,3.03,-1.25,-0.33,24.51,-3.07,39.17,1
26094,0.07,-0.13,-1.02,3.21,-1.07,-0.55,24.51,-3.07,39.17,1
26106,0.06,-0.12,-1.02,3.46,-0.71,-1.01,24.51,-3.07,39.17,1
26118,0.06,-0.12,-1.02,3.44,-0.5,-1.31,24.44,-3.13,39.04,1
26130,0.06,-0.12,-1.01,3.56,-0.07,-2.06,24.44,-3.13,39.04,1
26141,0.05,-0.11,-1.0,3.94,0.17,-2.24,24.44,-3.13,39.04,1
26151,0.05,-0.1,-1.0,4.62,0.3,-2.23,24.44,-3.13,39.04,1
26161,0.05,-0.1,-0.99,5.48,0.41,-2.18,24.44,-3.13,39.04,1
26173,0.05,-0.09,-0.99,6.66,0.53,-2.13,24.43,-3.11,39.37,1
26184,0.04,-0.08,-0.99,6.77,0.44,-2.13,24.43,-3.11,39.37,1
26194,0.04,-0.07,-0.99,6.51,0.23,-2.16,24.43,-3.11,39.37,1
26204,0.04,-0.07,-0.99,6.07,-0.09,-2.18,24.43,-3.11,39.37,1
26214,0.04,-0.07,-0.99,5.55,-0.46,-2.2,24.43,-3.11,39.37,1
26227,0.04,-0.07,-0.99,4.76,-1.24,-2.23,24.44,-3.15,39.42,1
26238,0.04,-0.07,-0.99,4.53,-1.52,-2.24,24.44,-3.15,39.42,1
26250,0.04,-0.07,-0.99,4.54,-1.87,-2.18,24.44,-3.15,39.42,1
26261,0.05,-0.07,-0.99,4.66,-2.04,-2.09,24.44,-3.15,39.42,1
26272,0.05,-0.06,-0.99,4.72,-2.25,-1.94,24.49,-3.27,39.23,1
26282,0.05,-0.06,-0.99,4.73,-2.41,-1.78,24.49,-3.27,39.23,1
26293,0.06,-0.06,-0.99,4.4,-2.69,-1.37,24.49,-3.27,39.23,1
26304,0.07,-0.05,-1.0,4.12,-2.91,-1.12,24.49,-3.27,39.23,1
26314,0.07,-0.04,-1.01,3.84,-3.09,-0.85,24.49,-3.27,39.23,1
26325,0.08,-0.04,-1.01,3.52,-3.19,-0.49,24.43,-3.32,39.04,1
26337,0.08,-0.03,-1.02,2.79,-3.2,0.14,24.43,-3.32,39.04,1
26349,0.09,-0.03,-1.03,2.48,-3.06,0.44,24.43,-3.32,39.04,1
26359,0.09,-0.03,-1.04,2.21,-2.83,0.82,24.43,-3.32,39.04,1
26372,0.09,-0.02,-1.05,1.3,-2.12,1.77,24.54,-3.43,39.07,1
26383,0.09,-0.03,-1.05,0.58,-1.81,2.14,24.54,-3.43,39.07,1
26396,0.08,-0.03,-1.05,-1.46,-1.2,2.66,24.54,-3.43,39.07,1
26407,0.08,-0.04,-1.04,-2.49,-0.9,2.85,24.54,-3.43,39.07,1
26418,0.07,-0.05,-1.03,-3.25,-0.65,3.06,24.51,-3.53,39.01,1
26431,0.07,-0.08,-1.02,-3.76,-0.16,3.67,24.51,-3.53,39.01,1
26442,0.06,-0.09,-1.01,-3.63,0.04,3.95,24.51,-3.53,39.01,1
26452,0.06,-0.1,-1.0,-3.35,0.15,4.13,24.51,-3.53,39.01,1
26463,0.06,-0.11,-0.99,-3.03,0.22,4.23,24.51,-3.53,39.01,1
26476,0.06,-0.12,-0.98,-2.07,-0.02,4.19,24.48,-3.51,39.0,1
26488,0.06,-0.12,-0.98,-1.5,-0.27,4.06,24.48,-3.51,39.0,1
26499,0.06,-0.13,-0.98,-0.07,-0.66,3.47,24.48,-3.51,39.0,1
26510,0.06,-0.12,-0.98,0.52,-0.88,3.04,24.48,-3.51,39.0,1
26521,0.05,-0.12,-0.98,0.97,-1.18,2.6,24.43,-3.62,39.0,1
26533,0.05,-0.11,-0.98,1.92,-1.97,2.51,24.43,-3.62,39.0,1
26544,0.06,-0.11,-1.0,2.52,-2.29,2.76,24.43,-3.62,39.0,1
26556,0.07,-0.11,-1.01,3.1,-2.43,2.93,24.43,-3.62,39.0,1
26567,0.08,-0.11,-1.02,3.51,-2.37,2.88,24.46,-3.58,39.01,1
26578,0.09,-0.1,-1.04,3.56,-2.16,2.51,24.46,-3.58,39.01,1
26589,0.09,-0.1,-1.05,3.27,-1.85,1.69,24.46,-3.58,39.01,1
26600,0.09,-0.1,-1.05,2.59,-1.51,0.93,24.46,-3.58,39.01,1
26611,0.09,-0.1,-1.05,1.89,-0.49,-0.07,24.46,-3.58,39.01,1
26623,0.08,-0.09,-1.03,1.8,0.06,-0.22,24.34,-3.54,38.85,1
26633,0.08,-0.08,-1.02,1.59,0.4,-0.24,24.34,-3.54,38.85,1
26643,0.07,-0.08,-1.01,1.29,0.63,-0.17,24.34,-3.54,38.85,1
26654,0.06,-0.08,-1.01,0.96,0.65,0.72,24.34,-3.54,38.85,1
26664,0.05,-0.08,-1.0,0.92,0.42,1.35,24.34,-3.54,38.85,1
26675,0.05,-0.08,-1.0,0.99,0.16,2.04,24.29,-3.69,38.85,1
26688,0.04,-0.08,-1.0,1.04,-0.33,3.1,24.29,-3.69,38.85,1
26699,0.04,-0.09,-1.0,0.94,-0.49,3.41,24.29,-3.69,38.85,1
26710,0.04,-0.1,-1.01,0.9,-0.68,3.62,24.29,-3.69,38.85,1
26722,0.04,-0.1,-1.01,1.01,-0.84,3.73,24.26,-3.78,38.87,1
26733,0.05,-0.12,-1.01,1.16,-0.77,3.68,24.26,-3.78,38.87,1
26745,0.05,-0.12,-1.01,1.43,-0.62,3.43,24.26,-3.78,38.87,1
26759,0.06,-0.13,-1.01,2.07,-0.41,2.62,24.26,-3.78,38.87,1
26769,0.06,-0.13,-1.0,2.31,-0.33,2.12,24.09,-3.72,38.71,1
26780,0.07,-0.12,-1.0,2.53,-0.38,1.57,24.09,-3.72,38.71,1
26791,0.07,-0.12,-1.0,2.91,-0.47,0.51,24.09,-3.72,38.71,1
26802,0.07,-0.11,-0.99,3.05,-0.54,0.09,24.09,-3.72,38.71,1
26812,0.07,-0.11,-0.99,3.15,-0.74,-0.21,24.09,-3.72,38.71,1
26823,0.07,-0.1,-0.99,3.28,-1.04,-0.41,24.03,-3.72,38.8,1
26834,0.08,-0.1,-0.99,3.57,-1.33,-0.77,24.03,-3.72,38.8,1
26845,0.07,-0.09,-1.0,3.78,-1.34,-0.95,24.03,-3.72,38.8,1
26855,0.07,-0.08,-1.0,3.89,-1.34,-1.1,24.03,-3.72,38.8,1
26867,0.07,-0.08,-1.01,3.84,-1.34,-1.28,24.07,-3.82,38.66,1
26878,0.07,-0.07,-1.01,3.63,-1.3,-1.45,24.07,-3.82,38.66,1
26890,0.07,-0.06,-1.01,3.36,-1.12,-1.55,24.07,-3.82,38.66,1
26903,0.07,-0.06,-1.02,2.96,-0.73,-1.47,24.07,-3.82,38.66,1
26914,0.06,-0.06,-1.02,2.74,-0.66,-1.36,24.07,-3.82,38.66,1
26925,0.06,-0.05,-1.02,2.42,-0.69,-1.12,24.08,-3.78,38.7,1
26939,0.06,-0.05,-1.02,1.43,-0.73,-0.46,24.08,-3.78,38.7,1
26949,0.06,-0.06,-1.02,0.99,-0.8,-0.15,24.08,-3.78,38.7,1
26959,0.06,-0.06,-1.02,0.65,-0.8,0.11,24.08,-3.78,38.7,1
26970,0.06,-0.06,-1.02,0.44,-0.66,0.42,23.91,-3.81,38.8,1
26982,0.06,-0.07,-1.01,0.22,-0.45,1.15,23.91,-3.81,38.8,1
26992,0.06,-0.07,-1.01,0.09,-0.4,1.42,23.91,-3.81,38.8,1
27002,0.06,-0.07,-1.01,0.1,-0.42,1.63,23.91,-3.81,38.8,1
27012,0.06,-0.08,-1.01,0.27,-0.34,1.82,23.91,-3.81,38.8,1
27025,0.05,-0.08,-1.01,1.09,-0.08,2.5,23.99,-3.8,38.74,1
27036,0.05,-0.08,-1.01,1.37,-0.02,2.7,23.99,-3.8,38.74,1
27049,0.05,-0.09,-1.01,0.87,-0.12,2.45,23.99,-3.8,38.74,1
27060,0.04,-0.1,-1.01,0.17,-0.21,2.02,23.99,-3.8,38.74,1
27071,0.04,-0.1,-1.01,-0.45,-0.46,1.52,23.97,-3.78,38.75,1
27081,0.04,-0.11,-1.0,-0.81,-0.66,1.0,23.97,-3.78,38.75,1
27092,0.04,-0.11,-1.01,-0.65,-0.74,0.24,23.97,-3.78,38.75,1
27103,0.04,-0.12,-1.0,-0.17,-0.77,-0.0,23.97,-3.78,38.75,1
27115,0.04,-0.12,-1.0,0.29,-0.79,-0.22,23.97,-3.78,38.75,1
27128,0.04,-0.12,-1.0,0.85,-1.17,-0.7,23.93,-3.83,38.78,1
27138,0.04,-0.12,-1.0,0.96,-1.37,-0.81,23.93,-3.83,38.78,1
27149,0.05,-0.11,-1.0,0.95,-1.62,-0.81,23.93,-3.83,38.78,1
27160,0.05,-0.11,-1.0,0.72,-2.1,-0.92,23.93,-3.83,38.78,1
27172,0.06,-0.12,-1.0,0.71,-2.25,-1.04,23.87,-3.76,38.78,1
27184,0.06,-0.11,-1.01,0.9,-2.34,-1.17,23.87,-3.76,38.78,1
27196,0.07,-0.11,-1.01,1.56,-2.35,-1.34,23.87,-3.76,38.78,1
27208,0.07,-0.11,-1.01,1.87,-2.29,-1.4,23.87,-3.76,38.78,1
27219,0.07,-0.11,-1.01,2.12,-2.14,-1.48,23.91,-3.77,38.6,1
27231,0.06,-0.1,-1.01,2.04,-1.84,-1.75,23.91,-3.77,38.6,1
27241,0.06,-0.09,-1.01,1.63,-1.73,-1.91,23.91,-3.77,38.6,1
27252,0.06,-0.09,-1.01,1.27,-1.63,-2.05,23.91,-3.77,38.6,1
27263,0.06,-0.09,-1.01,1.17,-1.29,-2.38,23.91,-3.77,38.6,1
27275,0.06,-0.08,-1.0,1.57,-1.16,-2.44,23.93,-3.77,38.77,1
27287,0.06,-0.08,-0.99,1.99,-1.02,-2.44,23.93,-3.77,38.77,1
27299,0.05,-0.07,-0.99,2.63,-1.07,-2.3,23.93,-3.77,38.77,1
27311,0.05,-0.07,-0.99,2.61,-1.26,-2.21,23.93,-3.77,38.77,1
27322,0.05,-0.07,-0.99,2.37,-1.51,-2.1,23.95,-3.73,38.75,1
27334,0.06,-0.07,-1.0,1.71,-2.12,-1.91,23.95,-3.73,38.75,1
27346,0.06,-0.07,-1.01,1.57,-2.27,-1.74,23.95,-3.73,38.75,1
27359,0.06,-0.07,-1.02,2.2,-2.03,-1.1,23.95,-3.73,38.75,1
27370,0.07,-0.07,-1.02,2.54,-1.82,-0.75,23.91,-3.69,38.96,1
27382,0.07,-0.07,-1.02,2.57,-1.59,-0.64,23.91,-3.69,38.96,1
27394,0.07,-0.08,-1.02,1.93,-1.03,-0.96,23.91,-3.69,38.96,1
27406,0.07,-0.08,-1.02,1.54,-0.87,-1.1,23.91,-3.69,38.96,1
27417,0.07,-0.08,-1.02,1.28,-0.72,-1.14,23.79,-3.67,38.95,1
27428,0.06,-0.08,-1.02,1.23,-0.6,-1.02,23.79,-3.67,38.95,1
27439,0.06,-0.08,-1.02,1.39,-0.44,-0.89,23.79,-3.67,38.95,1
27450,0.06,-0.08,-1.02,1.39,-0.22,-0.79,23.79,-3.67,38.95,1
27461,0.06,-0.08,-1.01,1.03,0.03,-0.88,23.79,-3.67,38.95,1
27473,0.06,-0.09,-1.0,0.8,0.04,-1.01,23.97,-3.67,38.86,1
27484,0.05,-0.09,-1.0,0.66,0.0,-1.16,23.97,-3.67,38.86,1
27495,0.05,-0.09,-1.0,1.0,-0.11,-1.2,23.97,-3.67,38.86,1
27506,0.05,-0.1,-1.0,1.31,-0.28,-1.13,23.97,-3.67,38.86,1
27517,0.05,-0.1,-1.0,1.35,-0.5,-1.22,23.97,-3.57,38.85,1
27531,0.05,-0.1,-1.0,0.64,-1.08,-1.71,23.97,-3.57,38.85,1
27542,0.05,-0.1,-0.99,0.26,-1.39,-1.94,23.97,-3.57,38.85,1
27553,0.05,-0.1,-0.99,0.11,-1.67,-2.08,23.97,-3.57,38.85,1
27564,0.06,-0.1,-0.99,0.52,-1.77,-2.16,23.97,-3.57,38.85,1
27576,0.06,-0.1,-0.99,0.86,-1.83,-2.14,24.02,-3.61,38.73,1
27586,0.06,-0.09,-0.99,1.09,-1.93,-2.14,24.02,-3.61,38.73,1
27598,0.06,-0.09,-1.0,1.45,-2.2,-2.03,24.02,-3.61,38.73,1
27609,0.07,-0.09,-1.01,1.62,-2.35,-1.81,24.02,-3.61,38.73,1
27620,0.07,-0.08,-1.01,1.76,-2.41,-1.52,24.06,-3.63,38.87,1
27634,0.07,-0.08,-1.02,1.53,-2.4,-1.07,24.06,-3.63,38.87,1
27646,0.07,-0.08,-1.03,1.27,-2.29,-0.92,24.06,-3.63,38.87,1
27659,0.07,-0.08,-1.03,0.71,-2.02,-0.62,24.06,-3.63,38.87,1
27671,0.07,-0.08,-1.03,0.4,-1.89,-0.4,24.1,-3.52,38.83,1
27681,0.06,-0.09,-1.03,0.27,-1.65,-0.14,24.1,-3.52,38.83,1
27691,0.06,-0.09,-1.03,0.28,-1.34,0.08,24.1,-3.52,38.83,1
27703,0.06,-0.09,-1.02,0.58,-0.79,0.41,24.1,-3.52,38.83,1
27713,0.06,-0.1,-1.02,0.73,-0.55,0.46,24.1,-3.52,38.83,1
27724,0.06,-0.1,-1.01,0.87,-0.38,0.56,24.17,-3.5,38.7,1
27734,0.06,-0.1,-1.01,0.97,-0.28,0.63,24.17,-3.5,38.7,1
27746,0.06,-0.1,-1.0,1.66,-0.01,0.72,24.17,-3.5,38.7,1
27756,0.06,-0.1,-1.0,2.1,0.11,0.82,24.17,-3.5,38.7,1
27766,0.06,-0.1,-1.0,2.5,0.1,0.85,24.19,-3.44,38.62,1
27780,0.06,-0.1,-0.99,2.84,-0.02,0.68,24.19,-3.44,38.62,1
27791,0.06,-0.1,-0.99,2.84,-0.1,0.54,24.19,-3.44,38.62,1
27804,0.06,-0.1,-0.99,2.77,-0.49,0.33,24.19,-3.44,38.62,1
27816,0.06,-0.09,-1.0,2.66,-0.66,0.23,24.13,-3.46,38.59,1
27828,0.06,-0.09,-1.0,2.53,-0.79,0.2,24.13,-3.46,38.59,1
27839,0.06,-0.09,-1.0,2.46,-1.04,0.1,24.13,-3.46,38.59,1
27850,0.06,-0.09,-1.0,2.41,-1.14,-0.06,24.13,-3.46,38.59,1
27860,0.06,-0.09,-1.01,2.46,-1.17,-0.16,24.13,-3.46,38.59,1
27871,0.06,-0.09,-1.01,2.59,-1.16,-0.2,24.23,-3.42,38.75,1
27882,0.06,-0.09,-1.01,2.84,-1.1,-0.05,24.23,-3.42,38.75,1
27893,0.06,-0.09,-1.02,2.87,-1.0,-0.05,24.23,-3.42,38.75,1
27903,0.06,-0.09,-1.02,2.9,-0.87,-0.12,24.23,-3.42,38.75,1
27915,0.06,-0.09,-1.02,2.89,-0.71,-0.25,24.25,-3.41,38.71,1
27926,0.06,-0.09,-1.02,2.91,-0.54,-0.35,24.25,-3.41,38.71,1
27938,0.06,-0.09,-1.01,2.8,-0.45,-0.39,24.25,-3.41,38.71,1
27952,0.06,-0.09,-1.01,2.14,-0.51,-0.54,24.25,-3.41,38.71,1
27962,0.06,-0.08,-1.01,1.57,-0.64,-0.62,24.25,-3.41,38.71,1
27973,0.06,-0.08,-1.01,0.82,-0.89,-0.82,24.15,-3.42,38.91,1
27983,0.06,-0.08,-1.01,0.13,-1.13,-0.98,24.15,-3.42,38.91,1
27995,0.06,-0.09,-1.0,0.02,-1.22,-0.98,24.15,-3.42,38.91,1
28005,0.05,-0.09,-1.0,0.51,-1.25,-0.71,24.15,-3.42,38.91,1
28016,0.05,-0.08,-1.0,1.12,-1.2,-0.37,24.24,-3.26,38.92,1
28029,0.05,-0.08,-1.0,1.9,-1.05,0.17,24.24,-3.26,38.92,1
28041,0.05,-0.08,-1.01,1.82,-1.02,0.24,24.24,-3.26,38.92,1
28055,0.06,-0.09,-1.01,1.38,-1.12,0.26,24.24,-3.26,38.92,1
28065,0.06,-0.09,-1.01,1.21,-1.2,0.22,24.11,-3.2,38.71,1
28077,0.06,-0.09,-1.01,1.09,-1.28,0.18,24.11,-3.2,38.71,1
28089,0.06,-0.09,-1.01,0.68,-1.37,0.06,24.11,-3.2,38.71,1
28101,0.06,-0.1,-1.01,0.42,-1.43,-0.12,24.11,-3.2,38.71,1
28111,0.06,-0.1,-1.01,0.38,-1.44,-0.25,24.11,-3.2,38.71,1
28124,0.06,-0.1,-1.0,1.19,-1.04,-0.22,24.1,-3.23,38.76,1
28134,0.06,-0.1,-1.0,1.69,-0.84,-0.17,24.1,-3.23,38.76,1
28145,0.06,-0.1,-1.0,2.2,-0.72,-0.09,24.1,-3.23,38.76,1
28156,0.06,-0.1,-1.0,2.56,-0.86,0.01,24.1,-3.23,38.76,1
28168,0.06,-0.09,-1.0,2.34,-1.07,-0.01,24.06,-3.39,38.81,1
28180,0.06,-0.09,-1.01,2.06,-1.3,-0.06,24.06,-3.39,38.81,1
28192,0.06,-0.09,-1.01,1.55,-1.43,-0.19,24.06,-3.39,38.81,1
28204,0.06,-0.09,-1.01,1.51,-1.48,-0.21,24.06,-3.39,38.81,1
28215,0.06,-0.09,-1.01,1.56,-1.47,-0.18,24.12,-3.35,39.0,1
28227,0.05,-0.09,-1.01,1.67,-1.33,-0.06,24.12,-3.35,39.0,1
28239,0.05,-0.09,-1.01,1.69,-1.24,-0.03,24.12,-3.35,39.0,1
28249,0.05,-0.09,-1.01,1.86,-1.15,0.04,24.12,-3.35,39.0,1
28261,0.05,-0.09,-1.01,2.23,-1.04,0.44,24.12,-3.35,39.0,1
28272,0.05,-0.09,-1.01,2.29,-1.13,0.57,24.12,-3.37,39.05,1
28282,0.05,-0.09,-1.01,2.23,-1.27,0.67,24.12,-3.37,39.05,1
28295,0.05,-0.09,-1.01,1.97,-1.41,0.62,24.12,-3.37,39.05,1
28307,0.06,-0.1,-1.01,1.99,-1.42,0.58,24.12,-3.37,39.05,1
28318,0.06,-0.1,-1.01,2.08,-1.36,0.58,24.14,-3.39,39.12,1
28330,0.06,-0.1,-1.01,2.22,-1.26,0.53,24.14,-3.39,39.12,1
28340,0.06,-0.1,-1.01,2.27,-1.22,0.44,24.14,-3.39,39.12,1
28350,0.06,-0.1,-1.01,2.27,-1.18,0.28,24.14,-3.39,39.12,1
28360,0.06,-0.1,-1.0,2.17,-1.12,0.11,24.14,-3.39,39.12,1
28373,0.06,-0.1,-1.0,2.04,-1.04,-0.2,24.1,-3.42,38.87,1
28383,0.06,-0.1,-1.0,1.94,-1.13,-0.31,24.1,-3.42,38.87,1
28393,0.06,-0.1,-1.0,1.85,-1.26,-0.43,24.1,-3.42,38.87,1
28405,0.06,-0.1,-1.0,2.09,-1.42,-0.71,24.1,-3.42,38.87,1
28417,0.06,-0.1,-1.01,2.42,-1.42,-0.71,24.2,-3.33,38.83,1
28429,0.07,-0.1,-1.01,2.78,-1.39,-0.69,24.2,-3.33,38.83,1
28441,0.07,-0.09,-1.01,3.32,-1.13,-0.72,24.2,-3.33,38.83,1
28453,0.07,-0.09,-1.01,3.43,-0.97,-0.76,24.2,-3.33,38.83,1
28464,0.07,-0.09,-1.01,3.34,-0.82,-0.82,24.18,-3.27,38.65,1
28476,0.06,-0.08,-1.01,2.86,-0.59,-1.1,24.18,-3.27,38.65,1
28488,0.06,-0.08,-1.01,2.74,-0.42,-1.16,24.18,-3.27,38.65,1
28498,0.06,-0.08,-1.01,2.77,-0.33,-1.02,24.18,-3.27,38.65,1
28510,0.05,-0.08,-1.01,2.61,-0.36,-0.67,24.18,-3.27,38.65,1
28521,0.05,-0.08,-1.0,2.41,-0.47,-0.56,24.06,-3.35,38.6,1
28531,0.05,-0.08,-1.0,2.27,-0.57,-0.37,24.06,-3.35,38.6,1
28541,0.04,-0.08,-1.0,2.15,-0.69,-0.1,24.06,-3.35,38.6,1
28553,0.04,-0.08,-1.01,2.4,-1.01,0.72,24.06,-3.35,38.6,1
28564,0.04,-0.09,-1.01,2.53,-1.11,1.06,24.11,-3.48,38.66,1
28576,0.05,-0.09,-1.01,2.47,-1.29,1.25,24.11,-3.48,38.66,1
28588,0.05,-0.1,-1.01,2.1,-1.52,1.36,24.11,-3.48,38.66,1
28598,0.05,-0.1,-1.01,2.16,-1.51,1.4,24.11,-3.48,38.66,1
28608,0.06,-0.11,-1.01,2.4,-1.43,1.36,24.11,-3.48,38.66,1
28619,0.06,-0.11,-1.01,2.75,-1.35,1.27,24.15,-3.47,38.68,1
28631,0.06,-0.11,-1.01,3.28,-1.3,1.12,24.15,-3.47,38.68,1
28641,0.06,-0.11,-1.01,3.5,-1.31,1.03,24.15,-3.47,38.68,1
28651,0.06,-0.11,-1.01,3.73,-1.26,0.93,24.15,-3.47,38.68,1
28661,0.06,-0.1,-1.01,3.95,-1.17,0.78,24.15,-3.47,38.68,1
28674,0.07,-0.1,-1.01,4.45,-1.07,0.41,24.29,-3.5,38.7,1
28684,0.07,-0.09,-1.01,4.54,-1.1,0.25,24.29,-3.5,38.7,1
28694,0.07,-0.09,-1.01,4.5,-1.14,0.02,24.29,-3.5,38.7,1
28704,0.07,-0.09,-1.01,4.53,-1.1,-0.18,24.29,-3.5,38.7,1
28716,0.07,-0.09,-1.01,4.9,-0.82,-0.36,24.26,-3.54,38.62,1
28726,0.06,-0.08,-1.01,5.04,-0.76,-0.35,24.26,-3.54,38.62,1
28737,0.06,-0.08,-1.01,4.99,-0.73,-0.32,24.26,-3.54,38.62,1
28751,0.06,-0.07,-1.01,4.57,-0.74,-0.31,24.26,-3.54,38.62,1
28764,0.06,-0.07,-1.01,4.47,-0.78,-0.2,24.45,-3.58,38.48,1
28775,0.06,-0.06,-1.01,4.52,-0.66,0.09,24.45,-3.58,38.48,1
28786,0.06,-0.06,-1.01,4.25,-0.62,0.1,24.45,-3.58,38.48,1
28798,0.06,-0.06,-1.01,3.91,-0.64,0.04,24.45,-3.58,38.48,1
28808,0.06,-0.06,-1.01,3.64,-0.56,0.04,24.45,-3.58,38.48,1
28821,0.06,-0.06,-1.01,3.3,-0.41,0.25,24.51,-3.64,38.49,1
28831,0.06,-0.06,-1.01,3.12,-0.36,0.25,24.51,-3.64,38.49,1
28841,0.06,-0.06,-1.02,2.81,-0.31,0.18,24.51,-3.64,38.49,1
28852,0.06,-0.06,-1.02,1.91,-0.26,-0.05,24.51,-3.64,38.49,1
28864,0.05,-0.06,-1.01,1.43,-0.27,-0.08,24.5,-3.66,38.78,1
28874,0.05,-0.06,-1.01,0.93,-0.35,-0.09,24.5,-3.66,38.78,1
28884,0.05,-0.07,-1.01,0.56,-0.47,-0.08,24.5,-3.66,38.78,1
28895,0.05,-0.07,-1.01,0.39,-0.77,0.2,24.5,-3.66,38.78,1
28906,0.05,-0.07,-1.0,0.5,-0.85,0.38,24.5,-3.66,38.78,1
28917,0.05,-0.08,-1.0,0.68,-0.82,0.49,24.42,-3.52,38.85,1
28927,0.05,-0.08,-1.0,0.81,-0.84,0.5,24.42,-3.52,38.85,1
28938,0.05,-0.08,-1.0,0.71,-1.1,0.34,24.42,-3.52,38.85,1
28949,0.06,-0.08,-1.0,0.77,-1.29,0.22,24.42,-3.52,38.85,1
28959,0.06,-0.08,-1.01,0.9,-1.33,0.13,24.42,-3.52,38.85,1
28970,0.06,-0.08,-1.01,1.1,-1.29,0.04,24.41,-3.46,38.86,1
28981,0.06,-0.08,-1.01,1.36,-1.07,-0.23,24.41,-3.46,38.86,1
28992,0.06,-0.09,-1.01,1.46,-0.98,-0.34,24.41,-3.46,38.86,1
29004,0.06,-0.09,-1.01,1.6,-0.95,-0.43,24.41,-3.46,38.86,1
29017,0.06,-0.09,-1.01,1.89,-0.95,-0.42,24.31,-3.53,38.9,1
29027,0.06,-0.09,-1.01,1.99,-0.93,-0.38,24.31,-3.53,38.9,1
29038,0.06,-0.09,-1.01,2.05,-0.95,-0.41,24.31,-3.53,38.9,1
29050,0.05,-0.08,-1.01,2.2,-1.1,-0.43,24.31,-3.53,38.9,1
29061,0.06,-0.08,-1.01,2.44,-1.05,-0.43,24.31,-3.53,38.9,1
29072,0.06,-0.08,-1.01,2.89,-1.1,-0.32,24.4,-3.49,39.01,1
29082,0.06,-0.08,-1.01,3.3,-1.18,-0.17,24.4,-3.49,39.01,1
29094,0.06,-0.08,-1.01,4.05,-0.87,0.24,24.4,-3.49,39.01,1
29105,0.06,-0.08,-1.01,4.21,-0.79,0.18,24.4,-3.49,39.01,1
29117,0.06,-0.08,-1.01,4.13,-0.78,0.1,24.47,-3.5,38.74,1
29129,0.06,-0.08,-1.01,4.6,-0.57,0.16,24.47,-3.5,38.74,1
29139,0.06,-0.08,-1.01,5.27,-0.4,0.33,24.47,-3.5,38.74,1
29149,0.06,-0.08,-1.01,6.09,-0.27,0.44,24.47,-3.5,38.74,1
29159,0.06,-0.08,-1.01,7.01,-0.1,0.52,24.47,-3.5,38.74,1
29172,0.06,-0.08,-1.01,8.79,0.26,0.52,24.43,-3.67,38.59,1
29182,0.06,-0.08,-1.0,9.26,0.65,0.44,24.43,-3.67,38.59,1
29193,0.05,-0.08,-1.0,9.59,0.96,0.17,24.43,-3.67,38.59,1
29204,0.05,-0.07,-1.0,9.91,0.85,0.19,24.43,-3.67,38.59,1
29216,0.05,-0.06,-1.0,9.97,0.55,0.18,24.41,-3.75,38.25,1
29228,0.05,-0.06,-1.0,9.83,0.18,0.08,24.41,-3.75,38.25,1
29240,0.05,-0.05,-1.01,9.23,-0.33,-0.41,24.41,-3.75,38.25,1
29250,0.06,-0.05,-1.01,9.0,-0.46,-0.62,24.41,-3.75,38.25,1
29260,0.06,-0.05,-1.01,8.86,-0.72,-0.97,24.41,-3.75,38.25,1
29271,0.05,-0.04,-1.01,8.73,-0.9,-1.41,24.47,-3.87,38.11,1
29283,0.05,-0.03,-1.02,8.72,-0.58,-1.46,24.47,-3.87,38.11,1
29293,0.04,-0.03,-1.02,8.69,-0.45,-1.08,24.47,-3.87,38.11,1
29303,0.04,-0.03,-1.02,8.38,-0.47,-0.64,24.47,-3.87,38.11,1
29314,0.04,-0.03,-1.02,7.73,-0.65,-0.34,24.37,-4.07,38.05,1
29326,0.04,-0.03,-1.01,5.62,-1.2,-0.26,24.37,-4.07,38.05,1
29338,0.04,-0.04,-1.01,4.56,-1.45,-0.33,24.37,-4.07,38.05,1
29351,0.04,-0.04,-1.01,3.7,-1.81,-0.1,24.37,-4.07,38.05,1
29363,0.04,-0.04,-1.0,3.92,-1.92,-0.14,24.41,-4.22,37.95,1
29374,0.04,-0.04,-0.99,4.2,-2.17,-0.1,24.41,-4.22,37.95,1
29387,0.04,-0.04,-0.99,3.65,-2.65,0.2,24.41,-4.22,37.95,1
29397,0.05,-0.04,-0.99,3.49,-2.82,0.45,24.41,-4.22,37.95,1
29407,0.05,-0.04,-1.0,3.53,-2.94,0.77,24.41,-4.22,37.95,1
29419,0.05,-0.04,-1.0,3.59,-3.05,1.38,24.39,-4.29,37.99,1
29430,0.06,-0.04,-1.01,3.48,-3.12,1.5,24.39,-4.29,37.99,1
29440,0.07,-0.04,-1.02,3.15,-3.21,1.48,24.39,-4.29,37.99,1
29450,0.07,-0.04,-1.02,2.69,-3.3,1.38,24.39,-4.29,37.99,1
29460,0.07,-0.04,-1.03,2.3,-3.22,1.25,24.39,-4.29,37.99,1
29473,0.08,-0.04,-1.03,2.2,-2.42,1.08,24.44,-4.43,38.12,1
29483,0.08,-0.04,-1.03,2.4,-1.87,1.07,24.44,-4.43,38.12,1
29493,0.07,-0.04,-1.02,2.5,-1.44,1.07,24.44,-4.43,38.12,1
29503,0.07,-0.04,-1.02,2.3,-1.22,0.98,24.44,-4.43,38.12,1
29516,0.07,-0.04,-1.01,1.4,-0.94,0.66,24.48,-4.6,38.14,1
29526,0.07,-0.04,-1.01,1.24,-0.77,0.57,24.48,-4.6,38.14,1
29536,0.07,-0.04,-1.01,1.54,-0.62,0.6,24.48,-4.6,38.14,1
29546,0.07,-0.04,-1.01,2.13,-0.48,0.89,24.48,-4.6,38.14,1
29558,0.06,-0.04,-1.01,2.56,-0.62,1.43,24.48,-4.6,38.14,1
29569,0.06,-0.04,-1.01,2.01,-0.9,1.31,24.54,-4.66,38.16,1
29579,0.07,-0.04,-1.01,1.19,-1.15,1.04,24.54,-4.66,38.16,1
29589,0.07,-0.05,-1.01,0.6,-1.22,0.73,24.54,-4.66,38.16,1
29601,0.07,-0.05,-1.02,0.98,-0.92,0.63,24.54,-4.66,38.16,1
29611,0.07,-0.05,-1.02,1.63,-0.65,0.69,24.54,-4.66,38.16,1
29622,0.07,-0.05,-1.02,2.24,-0.47,0.67,24.56,-4.79,38.01,1
29632,0.07,-0.05,-1.02,2.54,-0.33,0.47,24.56,-4.79,38.01,1
29644,0.06,-0.05,-1.01,2.41,-0.15,-0.24,24.56,-4.79,38.01,1
29655,0.06,-0.05,-1.01,2.39,-0.08,-0.48,24.56,-4.79,38.01,1
29668,0.06,-0.04,-1.01,2.84,0.07,-0.52,24.62,-4.98,38.01,1
29679,0.05,-0.04,-1.0,3.14,0.03,-0.31,24.62,-4.98,38.01,1
29689,0.05,-0.03,-1.0,3.35,-0.06,-0.08,24.62,-4.98,38.01,1
29699,0.05,-0.03,-1.0,3.34,-0.29,0.15,24.62,-4.98,38.01,1
29713,0.05,-0.03,-1.0,2.69,-0.84,0.32,24.52,-5.03,38.0,1
29725,0.05,-0.03,-1.0,2.43,-0.96,0.38,24.52,-5.03,38.0,1
29738,0.05,-0.03,-1.01,2.77,-0.85,0.74,24.52,-5.03,38.0,1
29750,0.05,-0.03,-1.01,3.31,-0.79,1.03,24.52,-5.03,38.0,1
29765,0.05,-0.03,-1.01,4.54,-0.4,1.74,24.41,-5.2,38.04,1
29776,0.05,-0.03,-1.01,4.78,-0.24,1.96,24.41,-5.2,38.04,1
29790,0.06,-0.03,-1.01,4.18,-0.26,1.98,24.41,-5.2,38.04,1
29802,0.06,-0.03,-1.01,3.7,-0.39,1.91,24.41,-5.2,38.04,1
29813,0.06,-0.03,-1.02,3.41,-0.53,1.84,24.33,-5.14,38.11,1
29824,0.06,-0.03,-1.01,3.53,-0.51,1.81,24.33,-5.14,38.11,1
29836,0.06,-0.03,-1.01,3.78,-0.34,1.99,24.33,-5.14,38.11,1
29850,0.05,-0.03,-1.01,3.91,-0.14,2.24,24.33,-5.14,38.11,1
29860,0.05,-0.03,-1.01,3.71,-0.11,2.26,24.33,-5.14,38.11,1
29871,0.05,-0.03,-1.01,3.28,-0.2,2.26,24.38,-5.21,38.17,1
29884,0.05,-0.04,-1.01,2.42,-0.62,1.97,24.38,-5.21,38.17,1
29895,0.05,-0.04,-1.01,2.35,-0.78,1.82,24.38,-5.21,38.17,1
29905,0.05,-0.04,-1.01,2.47,-0.85,1.71,24.38,-5.21,38.17,1
29917,0.05,-0.04,-1.01,2.99,-0.86,1.61,24.39,-5.14,38.21,1
29928,0.05,-0.04,-1.01,3.14,-0.79,1.59,24.39,-5.14,38.21,1
29939,0.05,-0.03,-1.01,3.13,-0.75,1.58,24.39,-5.14,38.21,1
29950,0.05,-0.03,-1.01,2.95,-0.81,1.54,24.39,-5.14,38.21,1
29963,0.05,-0.03,-1.01,2.24,-1.16,1.31,24.28,-5.33,38.3,1
29973,0.05,-0.03,-1.01,2.0,-1.25,1.14,24.28,-5.33,38.3,1
29983,0.05,-0.03,-1.01,1.94,-1.31,0.96,24.28,-5.33,38.3,1
29993,0.05,-0.04,-1.01,1.99,-1.35,0.88,24.28,-5.33,38.3,1
30005,0.05,-0.03,-1.01,2.02,-1.42,0.92,24.28,-5.33,38.3,1
30016,0.05,-0.03,-1.01,1.83,-1.5,0.78,24.23,-5.42,38.41,1
30026,0.05,-0.03,-1.01,1.71,-1.46,0.61,24.23,-5.42,38.41,1
30037,0.05,-0.03,-1.01,2.19,-1.17,0.52,24.23,-5.42,38.41,1
30048,0.05,-0.03,-1.01,2.77,-1.09,0.73,24.23,-5.42,38.41,1
30059,0.05,-0.03,-1.01,3.22,-1.1,0.89,24.23,-5.42,38.41,1
30072,0.05,-0.03,-1.01,3.05,-1.31,0.75,24.19,-5.46,38.57,1
30083,0.05,-0.03,-1.01,2.62,-1.41,0.61,24.19,-5.46,38.57,1
30093,0.05,-0.03,-1.01,2.28,-1.61,0.51,24.19,-5.46,38.57,1
30103,0.05,-0.03,-1.01,2.1,-1.83,0.46,24.19,-5.46,38.57,1
30116,0.05,-0.03,-1.01,1.84,-1.98,0.3,24.18,-5.49,38.59,1
30126,0.05,-0.03,-1.01,1.7,-2.0,0.17,24.18,-5.49,38.59,1
30136,0.05,-0.03,-1.01,1.49,-1.96,-0.05,24.18,-5.49,38.59,1
30146,0.05,-0.03,-1.01,1.32,-1.98,-0.2,24.18,-5.49,38.59,1
30159,0.05,-0.03,-1.0,1.18,-2.13,-0.38,24.18,-5.49,38.59,1
30171,0.05,-0.03,-1.0,1.08,-2.29,-0.36,24.18,-5.47,38.6,1
30184,0.05,-0.03,-1.0,0.81,-2.64,-0.38,24.18,-5.47,38.6,1
30195,0.05,-0.03,-1.01,0.82,-2.76,-0.4,24.18,-5.47,38.6,1
30206,0.06,-0.03,-1.01,0.95,-2.81,-0.36,24.18,-5.47,38.6,1
30220,0.06,-0.02,-1.01,1.58,-2.67,-0.39,24.18,-5.51,38.46,1
30230,0.06,-0.02,-1.01,1.84,-2.41,-0.45,24.18,-5.51,38.46,1
30241,0.06,-0.02,-1.02,1.96,-2.0,-0.5,24.18,-5.51,38.46,1
30254,0.06,-0.02,-1.02,2.09,-1.25,-0.46,24.18,-5.51,38.46,1
30265,0.06,-0.02,-1.02,2.1,-1.04,-0.35,24.28,-5.56,38.59,1
30277,0.06,-0.02,-1.01,2.07,-0.87,-0.1,24.28,-5.56,38.59,1
30288,0.06,-0.02,-1.01,2.29,-0.7,0.01,24.28,-5.56,38.59,1
30299,0.06,-0.02,-1.01,2.62,-0.51,0.23,24.28,-5.56,38.59,1
30309,0.06,-0.02,-1.01,2.98,-0.32,0.47,24.28,-5.56,38.59,1
30322,0.06,-0.02,-1.01,3.47,-0.25,0.93,24.25,-5.53,38.57,1
30332,0.06,-0.02,-1.01,3.5,-0.27,1.13,24.25,-5.53,38.57,1
30342,0.06,-0.02,-1.01,3.53,-0.32,1.28,24.25,-5.53,38.57,1
30352,0.06,-0.02,-1.01,3.64,-0.33,1.42,24.25,-5.53,38.57,1
30365,0.06,-0.02,-1.01,4.06,-0.39,1.7,24.17,-5.47,38.5,1
30377,0.06,-0.02,-1.02,4.33,-0.44,1.84,24.17,-5.47,38.5,1
30387,0.06,-0.02,-1.02,4.53,-0.38,1.97,24.17,-5.47,38.5,1
30398,0.06,-0.02,-1.02,4.35,-0.39,1.93,24.17,-5.47,38.5,1
30409,0.06,-0.02,-1.01,3.97,-0.39,1.75,24.17,-5.47,38.5,1
30420,0.06,-0.02,-1.01,3.55,-0.39,1.59,24.16,-5.54,38.13,1
30433,0.06,-0.02,-1.01,2.82,-0.38,1.41,24.16,-5.54,38.13,1
30445,0.06,-0.01,-1.01,2.46,-0.61,1.41,24.16,-5.54,38.13,1
30458,0.06,-0.01,-1.01,1.69,-1.1,1.25,24.16,-5.54,38.13,1
30470,0.06,-0.01,-1.0,1.44,-1.28,1.2,24.22,-5.55,37.93,1
30482,0.06,-0.01,-1.0,1.35,-1.37,1.22,24.22,-5.55,37.93,1
30494,0.06,-0.01,-1.01,1.66,-1.36,1.48,24.22,-5.55,37.93,1
30505,0.06,-0.01,-1.01,1.97,-1.29,1.71,24.22,-5.55,37.93,1
30518,0.06,-0.01,-1.01,2.12,-1.45,2.2,24.17,-5.54,37.95,1
30529,0.06,-0.01,-1.01,1.84,-1.58,2.32,24.17,-5.54,37.95,1
30539,0.06,-0.02,-1.02,1.46,-1.66,2.27,24.17,-5.54,37.95,1
30549,0.06,-0.02,-1.02,1.22,-1.68,2.23,24.17,-5.54,37.95,1
30563,0.06,-0.02,-1.02,1.36,-1.33,2.38,24.14,-5.52,37.9,1
30574,0.06,-0.02,-1.02,1.68,-0.95,2.52,24.14,-5.52,37.9,1
30584,0.06,-0.02,-1.02,1.92,-0.58,2.61,24.14,-5.52,37.9,1
30597,0.06,-0.02,-1.02,2.4,0.06,2.91,24.14,-5.52,37.9,1
30609,0.06,-0.02,-1.01,2.53,0.32,2.97,24.14,-5.52,37.9,1
30621,0.06,-0.02,-1.01,1.65,0.41,2.75,24.2,-5.53,37.84,1
30632,0.06,-0.02,-1.01,1.14,0.18,2.59,24.2,-5.53,37.84,1
30644,0.06,-0.02,-1.0,0.97,-0.11,2.62,24.2,-5.53,37.84,1
30657,0.06,-0.02,-1.0,1.58,-0.46,3.08,24.2,-5.53,37.84,1
30668,0.06,-0.02,-1.0,2.07,-0.45,3.26,24.14,-5.62,37.85,1
30681,0.06,-0.02,-1.01,2.74,-0.29,3.4,24.14,-5.62,37.85,1
30692,0.06,-0.02,-1.01,2.94,-0.17,3.47,24.14,-5.62,37.85,1
30704,0.06,-0.02,-1.01,3.05,-0.05,3.51,24.14,-5.62,37.85,1
30717,0.06,-0.03,-1.02,2.87,0.02,3.31,24.07,-5.58,37.89,1
30729,0.06,-0.03,-1.02,2.61,-0.0,3.06,24.07,-5.58,37.89,1
30741,0.06,-0.03,-1.02,2.2,-0.02,2.73,24.07,-5.58,37.89,1
30752,0.05,-0.02,-1.02,2.24,-0.03,2.66,24.07,-5.58,37.89,1
30763,0.05,-0.02,-1.01,2.41,0.03,2.65,23.99,-5.57,37.82,1
30774,0.05,-0.02,-1.01,2.64,0.12,2.67,23.99,-5.57,37.82,1
30786,0.05,-0.02,-1.01,3.04,0.23,2.73,23.99,-5.57,37.82,1
30797,0.05,-0.02,-1.0,2.92,0.1,2.76,23.99,-5.57,37.82,1
30808,0.05,-0.02,-1.0,2.58,-0.17,2.67,23.99,-5.57,37.82,1
30821,0.05,-0.02,-1.01,2.01,-0.69,2.43,23.91,-5.63,37.59,1
30831,0.05,-0.02,-1.01,2.12,-0.81,2.39,23.91,-5.63,37.59,1
30842,0.05,-0.02,-1.01,2.43,-0.83,2.43,23.91,-5.63,37.59,1
30854,0.05,-0.02,-1.02,3.19,-0.57,2.54,23.91,-5.63,37.59,1
30866,0.05,-0.02,-1.02,3.3,-0.43,2.49,23.75,-5.66,37.69,1
30876,0.05,-0.02,-1.01,3.12,-0.31,2.34,23.75,-5.66,37.69,1
30889,0.05,-0.02,-1.01,2.3,-0.31,1.89,23.75,-5.66,37.69,1
30900,0.05,-0.02,-1.01,2.12,-0.39,1.69,23.75,-5.66,37.69,1
30911,0.05,-0.02,-1.01,2.09,-0.51,1.66,23.62,-5.65,37.69,1
30922,0.05,-0.02,-1.01,2.54,-0.55,1.81,23.62,-5.65,37.69,1
30933,0.05,-0.01,-1.01,2.68,-0.55,1.88,23.62,-5.65,37.69,1
30944,0.05,-0.01,-1.01,2.63,-0.63,1.83,23.62,-5.65,37.69,1
30958,0.05,-0.01,-1.01,2.29,-0.75,1.55,23.62,-5.65,37.69,1
30969,0.05,-0.01,-1.01,2.31,-0.77,1.51,23.48,-5.67,37.77,1
30982,0.05,-0.01,-1.01,2.46,-0.6,1.55,23.48,-5.67,37.77,1
30993,0.05,-0.01,-1.01,2.37,-0.63,1.52,23.48,-5.67,37.77,1
31004,0.05,-0.01,-1.01,2.21,-0.77,1.47,23.48,-5.67,37.77,1
31018,0.05,-0.01,-1.02,1.86,-0.98,1.28,23.4,-5.77,37.62,1
31028,0.05,-0.01,-1.01,1.8,-0.94,1.2,23.4,-5.77,37.62,1
31038,0.05,-0.01,-1.01,1.82,-0.86,1.15,23.4,-5.77,37.62,1
31052,0.05,-0.01,-1.01,2.35,-0.64,1.4,23.4,-5.77,37.62,1
31063,0.05,-0.01,-1.01,2.79,-0.42,1.54,23.44,-5.9,37.78,1
31074,0.05,-0.01,-1.01,3.26,-0.19,1.68,23.44,-5.9,37.78,1
31086,0.05,-0.01,-1.01,3.74,0.19,1.55,23.44,-5.9,37.78,1
31097,0.05,-0.01,-1.01,3.95,0.15,1.14,23.44,-5.9,37.78,1
31107,0.05,-0.01,-1.01,4.22,0.16,0.73,23.44,-5.9,37.78,1
31118,0.04,-0.0,-1.01,4.48,0.18,0.78,23.49,-5.87,37.86,1
31130,0.04,-0.0,-1.01,4.24,-0.09,1.53,23.49,-5.87,37.86,1
31140,0.05,-0.0,-1.01,3.66,-0.51,1.83,23.49,-5.87,37.86,1
31151,0.05,-0.01,-1.01,3.05,-0.83,1.93,23.49,-5.87,37.86,1
31164,0.05,-0.01,-1.02,2.25,-1.05,1.83,23.42,-5.96,37.91,1
31175,0.05,-0.01,-1.02,2.04,-0.98,1.56,23.42,-5.96,37.91,1
31187,0.05,-0.01,-1.02,2.06,-0.62,1.35,23.42,-5.96,37.91,1
31198,0.06,-0.01,-1.02,2.25,-0.48,1.46,23.42,-5.96,37.91,1
31210,0.06,-0.01,-1.02,2.41,-0.35,1.53,23.48,-6.02,37.6,1
31220,0.05,-0.01,-1.02,2.43,-0.16,1.54,23.48,-6.02,37.6,1
31231,0.05,-0.01,-1.02,2.12,0.01,1.28,23.48,-6.02,37.6,1
31242,0.05,-0.01,-1.01,1.99,-0.04,1.22,23.48,-6.02,37.6,1
31253,0.05,-0.01,-1.01,1.95,-0.13,1.24,23.48,-6.02,37.6,1
31266,0.05,-0.0,-1.01,2.02,-0.26,1.51,23.33,-6.09,37.56,1
31277,0.05,-0.0,-1.01,2.23,-0.24,1.75,23.33,-6.09,37.56,1
31287,0.05,-0.0,-1.01,2.44,-0.17,1.96,23.33,-6.09,37.56,1
31299,0.04,-0.0,-1.01,2.67,-0.08,2.21,23.33,-6.09,37.56,1
31311,0.04,-0.0,-1.01,2.48,-0.21,2.28,23.34,-6.12,37.59,1
31322,0.04,-0.0,-1.01,2.12,-0.39,2.33,23.34,-6.12,37.59,1
31335,0.04,-0.0,-1.01,1.49,-0.65,2.41,23.34,-6.12,37.59,1
31347,0.04,-0.0,-1.01,1.52,-0.68,2.55,23.34,-6.12,37.59,1
31362,0.04,-0.01,-1.02,2.17,-0.55,2.94,23.24,-6.22,37.72,1
31372,0.04,-0.0,-1.02,2.47,-0.43,3.12,23.24,-6.22,37.72,1
31383,0.04,-0.0,-1.02,2.59,-0.31,3.24,23.24,-6.22,37.72,1
31395,0.04,-0.0,-1.01,2.4,-0.18,3.28,23.24,-6.22,37.72,1
31406,0.04,-0.0,-1.01,2.26,-0.15,3.32,23.24,-6.22,37.72,1
31417,0.04,-0.0,-1.01,2.21,-0.1,3.41,23.17,-6.28,37.66,1
31428,0.04,-0.0,-1.01,2.15,-0.09,3.43,23.17,-6.28,37.66,1
31439,0.03,-0.01,-1.01,2.0,-0.25,3.47,23.17,-6.28,37.66,1
31451,0.03,-0.01,-1.01,1.73,-0.47,3.51,23.17,-6.28,37.66,1
31464,0.04,-0.01,-1.01,1.46,-0.9,3.57,23.08,-6.36,37.68,1
31476,0.04,-0.02,-1.01,1.69,-0.96,3.56,23.08,-6.36,37.68,1
31488,0.04,-0.02,-1.01,2.53,-0.68,3.57,23.08,-6.36,37.68,1
31500,0.04,-0.02,-1.01,2.89,-0.57,3.52,23.08,-6.36,37.68,1
31511,0.04,-0.02,-1.01,3.17,-0.51,3.42,23.01,-6.47,37.46,1
31525,0.04,-0.01,-1.01,3.17,-0.44,3.14,23.01,-6.47,37.46,1
31536,0.04,-0.01,-1.01,2.71,-0.55,2.82,23.01,-6.47,37.46,1
31550,0.04,-0.01,-1.01,1.77,-1.0,2.15,23.01,-6.47,37.46,1
31561,0.04,-0.01,-1.01,1.74,-1.13,2.05,22.91,-6.52,37.64,1
31573,0.04,-0.01,-1.01,1.99,-1.2,2.03,22.91,-6.52,37.64,1
31585,0.04,-0.01,-1.01,2.39,-1.09,1.76,22.91,-6.52,37.64,1
31596,0.04,-0.01,-1.01,2.4,-1.0,1.55,22.91,-6.52,37.64,1
31607,0.04,-0.01,-1.01,2.28,-0.94,1.38,22.91,-6.52,37.64,1
31620,0.04,-0.01,-1.01,1.93,-0.96,1.17,22.91,-6.62,37.56,1
31630,0.04,-0.01,-1.01,1.81,-1.03,1.09,22.91,-6.62,37.56,1
31641,0.04,-0.0,-1.01,1.74,-1.09,1.04,22.91,-6.62,37.56,1
31653,0.04,-0.0,-1.01,1.59,-1.21,0.99,22.91,-6.62,37.56,1
31664,0.04,-0.0,-1.01,1.4,-1.24,0.94,22.83,-6.59,37.55,1
31676,0.04,-0.0,-1.01,1.25,-1.29,0.9,22.83,-6.59,37.55,1
31688,0.04,-0.01,-1.01,1.29,-1.25,0.93,22.83,-6.59,37.55,1
31700,0.04,-0.01,-1.01,1.41,-1.25,0.99,22.83,-6.59,37.55,1
31712,0.04,-0.01,-1.01,1.45,-1.17,0.93,22.82,-6.69,37.8,1
31723,0.04,-0.01,-1.01,1.41,-1.04,0.75,22.82,-6.69,37.8,1
31735,0.04,-0.01,-1.01,1.38,-0.83,0.56,22.82,-6.69,37.8,1
31746,0.04,-0.01,-1.01,1.76,-0.53,0.6,22.82,-6.69,37.8,1
31757,0.04,-0.01,-1.01,1.87,-0.51,0.69,22.82,-6.69,37.8,1
31768,0.04,-0.01,-1.01,1.75,-0.56,0.67,22.75,-6.82,37.6,1
31780,0.04,-0.01,-1.01,0.98,-0.82,0.12,22.75,-6.82,37.6,1
31791,0.04,-0.01,-1.01,0.75,-0.95,-0.11,22.75,-6.82,37.6,1
31803,0.04,-0.01,-1.01,0.76,-1.09,-0.27,22.75,-6.82,37.6,1
31816,0.04,-0.01,-1.01,1.34,-1.15,-0.41,22.66,-6.84,37.46,1
31828,0.04,-0.01,-1.01,1.61,-1.13,-0.45,22.66,-6.84,37.46,1
31842,0.04,-0.0,-1.01,1.76,-1.15,-0.56,22.66,-6.84,37.46,1
31854,0.04,-0.0,-1.01,1.77,-1.14,-0.56,22.66,-6.84,37.46,1
31865,0.05,-0.0,-1.01,1.77,-1.19,-0.48,22.63,-6.73,37.21,1
31877,0.05,-0.0,-1.01,1.68,-1.28,-0.26,22.63,-6.73,37.21,1
31889,0.05,0.0,-1.01,1.58,-1.25,-0.24,22.63,-6.73,37.21,1
31902,0.05,0.0,-1.02,1.46,-1.02,-0.23,22.63,-6.73,37.21,1
31914,0.05,0.0,-1.02,1.49,-0.92,-0.1,22.54,-6.74,37.21,1
31926,0.05,0.0,-1.02,1.61,-0.68,0.27,22.54,-6.74,37.21,1
31937,0.05,0.0,-1.02,1.58,-0.54,0.4,22.54,-6.74,37.21,1
31949,0.05,0.0,-1.02,1.42,-0.42,0.42,22.54,-6.74,37.21,1
31961,0.05,0.0,-1.02,1.13,-0.28,0.41,22.51,-6.81,37.52,1
31972,0.04,-0.0,-1.01,1.17,-0.3,0.52,22.51,-6.81,37.52,1
31982,0.04,-0.0,-1.01,1.24,-0.33,0.66,22.51,-6.81,37.52,1
31993,0.04,-0.0,-1.01,1.29,-0.41,0.83,22.51,-6.81,37.52,1
32006,0.04,-0.0,-1.01,1.15,-0.61,0.98,22.51,-6.81,37.52,1
32017,0.04,-0.0,-1.01,1.04,-0.72,1.07,22.57,-6.83,37.29,1
32031,0.04,-0.0,-1.01,1.29,-0.84,1.43,22.57,-6.83,37.29,1
32041,0.04,-0.0,-1.01,1.51,-0.86,1.64,22.57,-6.83,37.29,1
32052,0.04,-0.01,-1.01,1.66,-0.86,1.79,22.57,-6.83,37.29,1
32065,0.04,-0.01,-1.01,1.39,-1.03,1.86,22.58,-6.78,37.41,1
32076,0.05,-0.01,-1.02,0.93,-1.14,1.75,22.58,-6.78,37.41,1
32087,0.05,-0.01,-1.02,0.43,-1.2,1.55,22.58,-6.78,37.41,1
32099,0.05,-0.01,-1.02,-0.22,-1.24,1.3,22.58,-6.78,37.41,1
32110,0.04,-0.01,-1.02,-0.21,-1.17,1.26,22.54,-6.79,37.52,1
32122,0.04,-0.01,-1.02,-0.03,-1.03,1.26,22.54,-6.79,37.52,1
32134,0.04,-0.01,-1.01,0.57,-0.77,1.35,22.54,-6.79,37.52,1
32146,0.04,-0.01,-1.01,0.81,-0.67,1.43,22.54,-6.79,37.52,1
32160,0.04,-0.01,-1.0,0.95,-0.65,1.58,22.58,-6.7,37.51,1
32171,0.04,-0.01,-1.0,1.06,-0.81,1.76,22.58,-6.7,37.51,1
32182,0.04,-0.01,-1.0,1.22,-0.93,1.96,22.58,-6.7,37.51,1
32195,0.04,-0.01,-1.01,1.23,-1.36,2.31,22.58,-6.7,37.51,1
32205,0.04,-0.01,-1.01,1.09,-1.51,2.26,22.58,-6.7,37.51,1
32216,0.04,-0.01,-1.01,0.94,-1.57,2.19,22.61,-6.67,37.67,1
32227,0.04,-0.01,-1.01,1.16,-1.49,2.2,22.61,-6.67,37.67,1
32238,0.04,-0.01,-1.02,1.49,-1.29,2.29,22.61,-6.67,37.67,1
32250,0.04,-0.01,-1.02,1.81,-1.05,2.39,22.61,-6.67,37.67,1
32263,0.04,-0.01,-1.01,1.78,-0.77,2.38,22.46,-6.66,38.0,1
32275,0.04,-0.01,-1.01,1.37,-0.8,2.2,22.46,-6.66,38.0,1
32288,0.04,-0.01,-1.01,0.46,-1.09,1.72,22.46,-6.66,38.0,1
32300,0.04,-0.01,-1.01,0.34,-1.24,1.64,22.46,-6.66,38.0,1
32311,0.04,-0.01,-1.01,0.47,-1.37,1.69,22.62,-6.68,37.97,1
32323,0.04,-0.01,-1.01,1.12,-1.33,1.89,22.62,-6.68,37.97,1
32335,0.04,-0.01,-1.01,1.32,-1.35,1.97,22.62,-6.68,37.97,1
32348,0.04,-0.01,-1.01,1.41,-1.58,1.82,22.62,-6.68,37.97,1
32359,0.04,-0.01,-1.01,1.41,-1.58,1.69,22.57,-6.64,37.89,1
32371,0.04,-0.01,-1.02,1.45,-1.54,1.62,22.57,-6.64,37.89,1
32383,0.04,-0.01,-1.02,1.28,-1.39,1.35,22.57,-6.64,37.89,1
32395,0.04,-0.01,-1.02,1.13,-1.22,1.14,22.57,-6.64,37.89,1
32409,0.04,-0.01,-1.02,1.34,-0.73,0.89,22.6,-6.62,37.65,1
32420,0.04,-0.01,-1.01,1.56,-0.62,0.97,22.6,-6.62,37.65,1
32430,0.04,-0.01,-1.01,1.63,-0.56,1.02,22.6,-6.62,37.65,1
32443,0.03,-0.01,-1.01,1.38,-0.79,0.93,22.6,-6.62,37.65,1
32455,0.03,-0.01,-1.01,1.26,-0.89,0.83,22.6,-6.62,37.65,1
32466,0.03,-0.01,-1.01,1.24,-0.93,0.77,22.41,-6.67,37.63,1
32478,0.04,-0.01,-1.01,1.39,-0.96,0.69,22.41,-6.67,37.63,1
32489,0.04,-0.01,-1.01,1.36,-1.02,0.69,22.41,-6.67,37.63,1
32503,0.04,-0.02,-1.01,1.22,-1.09,0.62,22.41,-6.67,37.63,1
32514,0.04,-0.02,-1.01,1.3,-1.05,0.53,22.35,-6.66,37.57,1
32526,0.04,-0.02,-1.01,1.54,-0.98,0.52,22.35,-6.66,37.57,1
32538,0.04,-0.02,-1.01,2.14,-0.7,0.51,22.35,-6.66,37.57,1
32550,0.04,-0.02,-1.01,2.26,-0.64,0.48,22.35,-6.66,37.57,1
32562,0.04,-0.01,-1.01,2.01,-0.6,0.19,22.3,-6.6,37.39,1
32573,0.04,-0.01,-1.01,1.79,-0.66,-0.0,22.3,-6.6,37.39,1
32584,0.04,-0.01,-1.01,1.56,-0.78,-0.12,22.3,-6.6,37.39,1
32595,0.04,-0.01,-1.01,1.34,-0.97,-0.12,22.3,-6.6,37.39,1
32608,0.04,-0.01,-1.02,1.17,-1.13,-0.13,22.27,-6.61,37.27,1
32620,0.04,-0.01,-1.02,1.32,-1.05,-0.08,22.27,-6.61,37.27,1
32632,0.04,-0.01,-1.01,1.58,-0.84,0.02,22.27,-6.61,37.27,1
32643,0.04,-0.01,-1.01,1.5,-0.88,0.03,22.27,-6.61,37.27,1
32657,0.04,-0.01,-1.01,1.19,-0.99,-0.02,22.17,-6.68,37.42,1
32669,0.04,-0.01,-1.01,1.16,-1.08,0.03,22.17,-6.68,37.42,1
32681,0.04,-0.01,-1.01,1.19,-1.13,0.09,22.17,-6.68,37.42,1
32693,0.04,-0.01,-1.01,1.26,-1.04,0.15,22.17,-6.68,37.42,1
32703,0.04,-0.01,-1.01,1.31,-1.08,0.11,22.17,-6.68,37.42,1
32714,0.04,-0.01,-1.01,1.38,-1.14,0.1,22.28,-6.69,37.62,1
32725,0.04,-0.02,-1.01,1.71,-0.93,0.19,22.28,-6.69,37.62,1
32736,0.04,-0.02,-1.01,1.87,-0.84,0.26,22.28,-6.69,37.62,1
32748,0.04,-0.02,-1.01,1.89,-0.9,0.27,22.28,-6.69,37.62,1
32761,0.04,-0.02,-1.01,1.4,-1.09,-0.1,22.43,-6.67,37.61,1
32771,0.04,-0.02,-1.01,1.15,-1.24,-0.33,22.43,-6.67,37.61,1
32782,0.04,-0.02,-1.01,1.03,-1.37,-0.41,22.43,-6.67,37.61,1
32794,0.04,-0.01,-1.01,1.23,-1.57,-0.29,22.43,-6.67,37.61,1
32805,0.04,-0.01,-1.01,1.27,-1.65,-0.27,22.43,-6.67,37.61,1
32816,0.04,-0.01,-1.01,1.24,-1.69,-0.26,22.39,-6.64,37.81,1
32829,0.04,-0.01,-1.01,1.43,-1.53,-0.2,22.39,-6.64,37.81,1
32840,0.04,-0.01,-1.01,1.62,-1.45,-0.16,22.39,-6.64,37.81,1
32851,0.04,-0.01,-1.01,1.74,-1.37,-0.15,22.39,-6.64,37.81,1
32864,0.04,-0.01,-1.01,1.58,-1.27,-0.06,22.38,-6.62,37.88,1
32875,0.04,-0.01,-1.01,1.42,-1.25,0.02,22.38,-6.62,37.88,1
32886,0.04,-0.01,-1.01,1.31,-1.23,0.1,22.38,-6.62,37.88,1
32898,0.04,-0.02,-1.01,1.08,-1.41,0.14,22.38,-6.62,37.88,1
32909,0.04,-0.02,-1.01,1.0,-1.41,0.1,22.32,-6.69,37.65,1
32921,0.04,-0.02,-1.01,1.09,-1.38,0.06,22.32,-6.69,37.65,1
32933,0.04,-0.02,-1.01,1.57,-1.3,0.11,22.32,-6.69,37.65,1
32945,0.04,-0.02,-1.01,1.79,-1.27,0.13,22.32,-6.69,37.65,1
32959,0.04,-0.02,-1.01,1.74,-1.13,-0.22,22.42,-6.57,37.58,1
32971,0.04,-0.02,-1.01,1.57,-1.16,-0.46,22.42,-6.57,37.58,1
32985,0.04,-0.02,-1.01,1.56,-1.28,-0.72,22.42,-6.57,37.58,1
32996,0.04,-0.02,-1.01,1.89,-1.36,-0.67,22.42,-6.57,37.58,1
33008,0.04,-0.02,-1.01,2.2,-1.4,-0.63,22.38,-6.44,37.49,1
33019,0.04,-0.02,-1.01,2.36,-1.41,-0.73,22.38,-6.44,37.49,1
33031,0.04,-0.02,-1.01,2.14,-1.34,-1.01,22.38,-6.44,37.49,1
33044,0.04,-0.02,-1.01,1.97,-1.31,-1.42,22.38,-6.44,37.49,1
33055,0.04,-0.02,-1.01,2.07,-1.26,-1.49,22.38,-6.44,37.49,1
33066,0.04,-0.02,-1.01,2.28,-1.25,-1.58,22.4,-6.53,37.34,1
33077,0.04,-0.02,-1.01,2.51,-1.34,-1.69,22.4,-6.53,37.34,1
33088,0.04,-0.01,-1.01,2.47,-1.46,-1.74,22.4,-6.53,37.34,1
33100,0.04,-0.01,-1.01,2.3,-1.62,-1.77,22.4,-6.53,37.34,1
33113,0.04,-0.02,-1.01,1.88,-1.86,-1.86,22.41,-6.61,37.43,1
33125,0.04,-0.02,-1.01,1.85,-1.88,-1.9,22.41,-6.61,37.43,1
33138,0.04,-0.02,-1.02,2.22,-1.74,-1.94,22.41,-6.61,37.43,1
33149,0.04,-0.02,-1.01,2.35,-1.54,-1.99,22.41,-6.61,37.43,1
33160,0.04,-0.02,-1.01,2.36,-1.4,-2.03,22.49,-6.62,37.28,1
33174,0.04,-0.02,-1.01,2.25,-1.29,-2.13,22.49,-6.62,37.28,1
33185,0.05,-0.02,-1.01,2.22,-1.31,-2.19,22.49,-6.62,37.28,1
33196,0.05,-0.02,-1.01,2.22,-1.41,-2.23,22.49,-6.62,37.28,1
33209,0.05,-0.01,-1.01,2.09,-1.5,-2.4,22.52,-6.69,37.22,1
33221,0.04,-0.01,-1.01,2.0,-1.46,-2.53,22.52,-6.69,37.22,1
33232,0.04,-0.01,-1.01,1.89,-1.47,-2.67,22.52,-6.69,37.22,1
33243,0.04,-0.01,-1.01,2.01,-1.49,-2.65,22.52,-6.69,37.22,1
33255,0.04,-0.01,-1.01,2.13,-1.54,-2.6,22.52,-6.69,37.22,1
33268,0.04,-0.01,-1.01,2.02,-1.67,-2.65,22.59,-6.69,37.35,1
33279,0.04,-0.01,-1.01,1.76,-1.76,-2.78,22.59,-6.69,37.35,1
33293,0.04,-0.01,-1.01,1.52,-1.95,-2.81,22.59,-6.69,37.35,1
33306,0.04,-0.01,-1.01,1.65,-2.02,-2.7,22.59,-6.69,37.24,1
33317,0.04,-0.01,-1.01,1.82,-2.1,-2.52,22.59,-6.69,37.24,1
33328,0.05,-0.01,-1.01,1.74,-1.98,-2.55,22.59,-6.69,37.24,1
33339,0.05,-0.01,-1.01,1.68,-1.88,-2.6,22.59,-6.69,37.24,1
33351,0.05,-0.01,-1.01,1.59,-1.67,-2.7,22.59,-6.69,37.24,1
33364,0.05,-0.01,-1.01,1.61,-1.6,-2.7,22.59,-6.65,37.19,1
33374,0.05,-0.01,-1.01,1.67,-1.5,-2.68,22.59,-6.65,37.19,1
33387,0.04,-0.01,-1.01,1.68,-1.55,-2.67,22.59,-6.65,37.19,1
33399,0.04,-0.01,-1.01,1.49,-1.59,-2.89,22.59,-6.65,37.19,1
33410,0.04,-0.01,-1.01,1.33,-1.49,-2.83,22.67,-6.59,37.23,1
33423,0.04,-0.01,-1.01,1.36,-1.72,-2.51,22.67,-6.59,37.23,1
33434,0.05,-0.01,-1.01,1.37,-1.66,-2.46,22.67,-6.59,37.23,1
33448,0.05,-0.01,-1.01,1.57,-1.45,-2.27,22.67,-6.59,37.23,1
33460,0.05,-0.01,-1.01,1.65,-1.49,-2.21,22.71,-6.55,37.28,1
33473,0.05,-0.01,-1.01,1.48,-1.58,-2.23,22.71,-6.55,37.28,1
33485,0.05,-0.01,-1.01,1.3,-1.57,-2.24,22.71,-6.55,37.28,1
33498,0.05,-0.01,-1.01,1.37,-1.74,-2.16,22.71,-6.55,37.28,1
33510,0.05,-0.02,-1.01,1.66,-1.75,-2.09,22.77,-6.69,37.51,1
33522,0.05,-0.01,-1.01,1.93,-1.74,-2.04,22.77,-6.69,37.51,1
33534,0.05,-0.01,-1.01,1.98,-1.63,-2.03,22.77,-6.69,37.51,1
33546,0.05,-0.01,-1.01,1.79,-1.62,-2.04,22.77,-6.69,37.51,1
33557,0.05,-0.01,-1.01,1.47,-1.64,-2.08,22.83,-6.65,37.48,1
33568,0.05,-0.01,-1.01,0.88,-1.78,-2.14,22.83,-6.65,37.48,1
33580,0.05,-0.01,-1.01,-0.08,-2.1,-2.57,22.83,-6.65,37.48,1
33594,0.05,-0.01,-1.01,-1.05,-2.54,-2.74,22.83,-6.65,37.48,1
33607,0.05,-0.01,-1.01,-0.78,-2.6,-2.58,22.87,-6.61,37.54,1
33618,0.06,-0.01,-1.01,0.31,-2.35,-2.4,22.87,-6.61,37.54,1
33629,0.05,-0.01,-1.01,0.94,-1.82,-2.33,22.87,-6.61,37.54,1
33641,0.06,-0.01,-1.01,1.56,-1.39,-2.05,22.87,-6.61,37.54,1
33656,0.05,-0.01,-1.0,2.16,-1.19,-1.44,22.9,-6.51,37.34,1
33667,0.05,-0.0,-1.0,1.95,-1.19,-1.27,22.9,-6.51,37.34,1
33680,0.06,-0.0,-1.01,1.19,-1.47,-1.08,22.9,-6.51,37.34,1
33691,0.06,-0.0,-1.01,1.12,-1.67,-0.98,22.9,-6.51,37.34,1
33702,0.06,-0.0,-1.01,1.36,-1.73,-0.79,22.9,-6.51,37.34,1
33715,0.06,-0.0,-1.02,2.23,-1.4,-0.06,22.94,-6.46,37.42,1
33726,0.06,-0.0,-1.02,2.45,-1.1,0.35,22.94,-6.46,37.42,1
33737,0.06,-0.0,-1.02,2.41,-0.85,0.65,22.94,-6.46,37.42,1
33749,0.06,-0.0,-1.02,1.74,-0.57,0.86,22.94,-6.46,37.42,1
33760,0.06,-0.01,-1.03,1.36,-0.5,0.93,23.01,-6.34,37.36,1
33772,0.06,-0.01,-1.02,0.84,-0.43,0.91,23.01,-6.34,37.36,1
33783,0.06,-0.01,-1.02,0.74,-0.35,0.78,23.01,-6.34,37.36,1
33795,0.06,-0.01,-1.01,0.71,-0.27,0.7,23.01,-6.34,37.36,1
33806,0.06,-0.01,-1.01,0.76,-0.2,0.73,23.02,-6.28,37.43,1
33817,0.05,-0.02,-1.0,0.9,-0.1,0.87,23.02,-6.28,37.43,1
33829,0.05,-0.02,-1.0,1.09,-0.05,1.11,23.02,-6.28,37.43,1
33842,0.05,-0.02,-1.0,1.25,-0.31,1.38,23.02,-6.28,37.43,1
33853,0.05,-0.02,-1.0,1.12,-0.54,1.36,23.02,-6.28,37.43,1
33864,0.05,-0.02,-1.01,0.98,-0.73,1.3,23.04,-6.25,37.62,1
33877,0.06,-0.03,-1.01,0.88,-1.01,1.24,23.04,-6.25,37.62,1
33889,0.06,-0.03,-1.01,1.09,-1.02,1.29,23.04,-6.25,37.62,1
33903,0.06,-0.03,-1.02,1.48,-0.84,1.23,23.04,-6.25,37.62,1
33914,0.05,-0.02,-1.02,1.51,-0.65,1.12,22.94,-6.28,37.87,1
33926,0.05,-0.02,-1.02,1.52,-0.5,0.95,22.94,-6.28,37.87,1
33938,0.05,-0.02,-1.02,1.46,-0.22,0.92,22.94,-6.28,37.87,1
33949,0.05,-0.02,-1.01,1.49,-0.22,1.0,22.94,-6.28,37.87,1
33962,0.04,-0.01,-1.01,1.46,-0.29,1.24,23.04,-6.23,38.11,1
33973,0.04,-0.01,-1.01,1.38,-0.31,1.33,23.04,-6.23,38.11,1
33984,0.04,-0.01,-1.01,1.32,-0.36,1.44,23.04,-6.23,38.11,1
33998,0.04,-0.02,-1.01,1.41,-0.53,1.81,23.04,-6.23,38.11,1
34009,0.04,-0.02,-1.01,1.42,-0.6,1.95,23.07,-6.27,37.95,1
34021,0.04,-0.02,-1.01,1.41,-0.74,2.05,23.07,-6.27,37.95,1
34033,0.05,-0.03,-1.01,1.51,-0.77,2.02,23.07,-6.27,37.95,1
34043,0.05,-0.03,-1.01,1.62,-0.75,1.94,23.07,-6.27,37.95,1
34053,0.05,-0.03,-1.01,1.72,-0.66,1.85,23.07,-6.27,37.95,1
34066,0.05,-0.03,-1.01,1.81,-0.6,1.63,23.03,-6.28,37.86,1
34077,0.04,-0.03,-1.01,1.82,-0.65,1.58,23.03,-6.28,37.86,1
34088,0.04,-0.03,-1.01,1.77,-0.73,1.58,23.03,-6.28,37.86,1
34099,0.04,-0.02,-1.01,1.29,-1.05,1.3,23.03,-6.28,37.86,1
34111,0.04,-0.03,-1.01,1.13,-1.18,1.04,23.03,-6.28,37.89,1
34122,0.04,-0.02,-1.01,1.17,-1.26,0.88,23.03,-6.28,37.89,1
34133,0.04,-0.02,-1.01,1.52,-1.52,0.94,23.03,-6.28,37.89,1
34144,0.04,-0.02,-1.01,1.67,-1.59,0.96,23.03,-6.28,37.89,1
34155,0.05,-0.02,-1.01,1.77,-1.56,0.95,22.96,-6.22,37.86,1
34169,0.05,-0.02,-1.01,1.98,-1.41,0.84,22.96,-6.22,37.86,1
34180,0.05,-0.02,-1.01,2.04,-1.34,0.76,22.96,-6.22,37.86,1
34193,0.05,-0.02,-1.01,1.85,-1.29,0.52,22.96,-6.22,37.86,1
34205,0.05,-0.02,-1.02,1.66,-1.18,0.49,22.92,-6.28,37.76,1
34217,0.05,-0.02,-1.01,1.35,-1.28,0.46,22.92,-6.28,37.76,1
34229,0.05,-0.02,-1.01,1.24,-1.21,0.08,22.92,-6.28,37.76,1
34241,0.05,-0.02,-1.01,1.6,-0.99,-0.02,22.92,-6.28,37.76,1
34254,0.05,-0.02,-1.01,1.92,-0.86,-0.13,22.9,-6.2,37.56,1
34265,0.05,-0.02,-1.01,1.73,-0.77,-0.32,22.9,-6.2,37.56,1
34276,0.05,-0.02,-1.01,1.47,-0.71,-0.53,22.9,-6.2,37.56,1
34290,0.05,-0.02,-1.01,0.82,-0.91,-0.54,22.9,-6.2,37.56,1
34302,0.05,-0.02,-1.01,0.74,-0.98,-0.59,22.9,-6.2,37.56,1
34315,0.05,-0.02,-1.01,1.24,-0.84,-0.3,22.86,-6.16,37.53,1
34327,0.04,-0.02,-1.01,1.34,-0.78,-0.37,22.86,-6.16,37.53,1
34341,0.04,-0.02,-1.01,1.25,-0.78,-0.13,22.86,-6.16,37.53,1
34353,0.04,-0.02,-1.01,1.38,-1.01,0.09,22.86,-6.16,37.53,1
34364,0.04,-0.02,-1.01,1.38,-1.22,0.21,22.83,-6.22,37.58,1
34376,0.05,-0.02,-1.01,1.26,-1.48,0.48,22.83,-6.22,37.58,1
34387,0.05,-0.02,-1.02,1.35,-1.55,0.63,22.83,-6.22,37.58,1
34401,0.05,-0.02,-1.02,1.47,-1.49,0.79,22.83,-6.22,37.58,1
34412,0.05,-0.02,-1.02,1.5,-1.37,0.76,22.82,-6.31,37.61,1
34424,0.05,-0.02,-1.02,1.45,-1.27,0.66,22.82,-6.31,37.61,1
34436,0.05,-0.02,-1.01,1.31,-0.95,0.26,22.82,-6.31,37.61,1
34447,0.05,-0.02,-1.01,1.41,-0.81,0.2,22.82,-6.31,37.61,1
34459,0.05,-0.02,-1.01,1.6,-0.89,0.34,22.95,-6.36,37.74,1
34470,0.05,-0.02,-1.01,1.55,-0.91,0.28,22.95,-6.36,37.74,1
34482,0.05,-0.02,-1.01,1.39,-0.9,0.18,22.95,-6.36,37.74,1
34496,0.05,-0.03,-1.01,1.45,-0.99,0.09,22.95,-6.36,37.74,1
34507,0.05,-0.03,-1.01,1.68,-1.03,0.09,22.91,-6.32,37.89,1
34520,0.05,-0.03,-1.01,2.05,-0.99,0.19,22.91,-6.32,37.89,1
34531,0.05,-0.03,-1.01,2.09,-0.98,0.16,22.91,-6.32,37.89,1
34543,0.05,-0.03,-1.01,2.13,-0.98,0.12,22.91,-6.32,37.89,1
34557,0.05,-0.02,-1.01,1.98,-1.03,0.13,22.93,-6.25,37.82,1
34569,0.05,-0.02,-1.01,1.7,-1.11,0.02,22.93,-6.25,37.82,1
34580,0.05,-0.02,-1.01,1.24,-1.17,-0.26,22.93,-6.25,37.82,1
34591,0.05,-0.03,-1.01,1.29,-1.22,-0.29,22.93,-6.25,37.82,1
34603,0.05,-0.02,-1.01,1.49,-1.2,-0.25,22.93,-6.25,37.82,1
34616,0.05,-0.02,-1.01,2.02,-1.0,-0.06,22.97,-6.17,37.79,1
34628,0.05,-0.02,-1.01,2.21,-0.98,0.06,22.97,-6.17,37.79,1
34641,0.05,-0.02,-1.01,2.1,-1.2,0.17,22.97,-6.17,37.79,1
34654,0.05,-0.02,-1.01,1.89,-1.26,0.05,22.95,-6.19,37.68,1
34668,0.05,-0.02,-1.01,1.61,-1.35,-0.13,22.95,-6.19,37.68,1
34680,0.05,-0.02,-1.01,1.56,-1.36,-0.16,22.95,-6.19,37.68,1
34694,0.05,-0.02,-1.01,1.56,-1.32,-0.05,22.95,-6.19,37.68,1
34705,0.05,-0.02,-1.01,1.55,-1.21,-0.08,22.91,-6.19,37.82,1
34717,0.05,-0.02,-1.01,1.67,-0.96,-0.11,22.91,-6.19,37.82,1
34728,0.05,-0.02,-1.01,1.71,-0.95,-0.12,22.91,-6.19,37.82,1
34740,0.04,-0.02,-1.01,1.64,-1.12,-0.12,22.91,-6.19,37.82,1
34755,0.04,-0.03,-1.01,1.34,-1.38,-0.22,23.02,-6.27,37.99,1
34766,0.04,-0.03,-1.01,1.53,-1.39,-0.24,23.02,-6.27,37.99,1
34779,0.04,-0.03,-1.01,2.4,-1.16,0.01,23.02,-6.27,37.99,1
34790,0.04,-0.03,-1.01,2.84,-1.03,0.17,23.02,-6.27,37.99,1
34801,0.04,-0.02,-1.01,3.06,-0.92,0.23,23.02,-6.27,37.99,1
34814,0.04,-0.02,-1.01,2.69,-0.98,0.1,22.92,-6.26,37.93,1
34825,0.04,-0.02,-1.01,2.12,-1.06,-0.19,22.92,-6.26,37.93,1
34839,0.04,-0.02,-1.01,1.41,-1.31,-0.63,22.92,-6.26,37.93,1
34850,0.04,-0.03,-1.01,1.53,-1.44,-0.64,22.92,-6.26,37.93,1
34861,0.04,-0.03,-1.01,1.84,-1.52,-0.61,22.87,-6.26,37.72,1
34873,0.04,-0.02,-1.01,2.1,-1.54,-0.73,22.87,-6.26,37.72,1
34885,0.05,-0.02,-1.01,2.12,-1.47,-0.88,22.87,-6.26,37.72,1
34898,0.05,-0.03,-1.01,2.36,-1.38,-0.89,22.87,-6.26,37.72,1
34910,0.05,-0.02,-1.01,2.55,-1.48,-0.75,22.94,-6.28,37.52,1
34921,0.05,-0.02,-1.01,2.5,-1.64,-0.73,22.94,-6.28,37.52,1
34934,0.05,-0.02,-1.01,1.6,-1.86,-1.23,22.94,-6.28,37.52,1
34945,0.05,-0.02,-1.01,1.18,-1.88,-1.45,22.94,-6.28,37.52,1
34958,0.05,-0.02,-1.01,1.16,-1.8,-1.63,22.84,-6.25,37.41,1
34969,0.05,-0.02,-1.01,1.35,-1.76,-1.61,22.84,-6.25,37.41,1
34981,0.05,-0.02,-1.01,1.56,-1.68,-1.63,22.84,-6.25,37.41,1
34992,0.05,-0.02,-1.01,2.01,-1.44,-1.75,22.84,-6.25,37.41,1
35004,0.05,-0.02,-1.01,2.17,-1.27,-1.82,22.8,-6.32,37.29,1
35016,0.05,-0.02,-1.01,2.24,-1.18,-1.85,22.8,-6.32,37.29,1
35028,0.05,-0.02,-1.01,2.09,-1.2,-1.89,22.8,-6.32,37.29,1
35040,0.05,-0.02,-1.01,1.92,-1.3,-1.93,22.8,-6.32,37.29,1
35054,0.05,-0.02,-1.01,1.56,-1.35,-1.99,22.81,-6.3,37.08,1
35065,0.05,-0.02,-1.01,1.47,-1.39,-2.01,22.81,-6.3,37.08,1
35075,0.05,-0.02,-1.01,1.4,-1.36,-2.01,22.81,-6.3,37.08,1
35088,0.05,-0.02,-1.01,1.39,-1.44,-1.94,22.81,-6.3,37.08,1
35100,0.05,-0.02,-1.01,1.42,-1.45,-1.93,22.81,-6.3,37.08,1
35112,0.05,-0.02,-1.01,1.54,-1.3,-1.95,22.87,-6.26,37.27,1
35123,0.05,-0.02,-1.01,1.63,-1.18,-1.94,22.87,-6.26,37.27,1
35135,0.06,-0.02,-1.01,1.77,-1.08,-1.86,22.87,-6.26,37.27,1
35147,0.06,-0.02,-1.01,2.05,-1.08,-1.62,22.87,-6.26,37.27,1
35159,0.06,-0.01,-1.01,1.9,-1.19,-1.56,22.94,-6.33,37.23,1
35170,0.06,-0.01,-1.01,1.55,-1.33,-1.59,22.94,-6.33,37.23,1
35183,0.06,-0.02,-1.01,0.87,-1.41,-1.69,22.94,-6.33,37.23,1
35195,0.06,-0.02,-1.01,0.96,-1.41,-1.54,22.94,-6.33,37.23,1
35207,0.06,-0.02,-1.01,1.64,-1.17,-1.1,23.03,-6.27,37.43,1
35218,0.06,-0.02,-1.01,1.8,-1.12,-0.98,23.03,-6.27,37.43,1
35230,0.06,-0.02,-1.01,1.71,-1.05,-0.97,23.03,-6.27,37.43,1
35241,0.06,-0.02,-1.01,1.32,-0.93,-0.98,23.03,-6.27,37.43,1
35253,0.05,-0.02,-1.01,1.12,-0.99,-0.88,23.15,-6.29,37.25,1
35265,0.05,-0.02,-1.01,1.05,-1.12,-0.8,23.15,-6.29,37.25,1
35277,0.05,-0.02,-1.01,1.18,-1.18,-0.7,23.15,-6.29,37.25,1
35289,0.05,-0.02,-1.01,1.42,-1.15,-0.5,23.15,-6.29,37.25,1
35303,0.05,-0.02,-1.01,2.05,-1.08,0.13,23.14,-6.33,37.56,1
35314,0.05,-0.02,-1.01,2.32,-0.95,0.33,23.14,-6.33,37.56,1
35325,0.05,-0.02,-1.01,2.46,-0.75,0.46,23.14,-6.33,37.56,1
35337,0.05,-0.02,-1.01,2.33,-0.7,0.64,23.14,-6.33,37.56,1
35349,0.05,-0.02,-1.01,2.08,-0.82,0.7,23.14,-6.33,37.56,1
35361,0.05,-0.02,-1.01,1.9,-0.89,0.73,23.14,-6.32,37.72,1
35372,0.05,-0.02,-1.01,1.8,-0.86,0.69,23.14,-6.32,37.72,1
35384,0.05,-0.02,-1.01,1.73,-0.79,0.62,23.14,-6.32,37.72,1
35397,0.05,-0.03,-1.01,1.61,-0.67,0.58,23.14,-6.32,37.72,1
35409,0.04,-0.03,-1.01,1.67,-0.75,0.59,23.13,-6.27,37.76,1
35421,0.05,-0.03,-1.01,2.06,-0.86,0.6,23.13,-6.27,37.76,1
35432,0.05,-0.03,-1.0,2.19,-0.98,0.51,23.13,-6.27,37.76,1
35444,0.05,-0.03,-1.0,2.18,-1.13,0.32,23.13,-6.27,37.76,1
35456,0.05,-0.03,-1.0,2.07,-1.44,0.17,23.06,-6.27,37.76,1
35467,0.05,-0.03,-1.01,2.1,-1.6,0.2,23.06,-6.27,37.76,1
35479,0.05,-0.03,-1.01,2.17,-1.69,0.2,23.06,-6.27,37.76,1
35490,0.05,-0.03,-1.01,2.5,-1.68,0.08,23.06,-6.27,37.76,1
35501,0.05,-0.02,-1.01,2.63,-1.54,-0.05,23.06,-6.27,37.76,1
35512,0.05,-0.02,-1.02,2.74,-1.39,-0.15,23.18,-6.21,37.82,1
35526,0.05,-0.02,-1.02,2.75,-1.27,-0.28,23.18,-6.21,37.82,1
35537,0.05,-0.02,-1.02,2.65,-1.22,-0.29,23.18,-6.21,37.82,1
35550,0.05,-0.02,-1.02,2.35,-1.23,-0.36,23.18,-6.21,37.82,1
35562,0.05,-0.02,-1.01,2.23,-1.07,-0.38,23.21,-6.11,37.88,1
35573,0.05,-0.02,-1.01,2.28,-0.9,-0.43,23.21,-6.11,37.88,1
35586,0.05,-0.01,-1.01,2.5,-0.8,-0.32,23.21,-6.11,37.88,1
35597,0.05,-0.01,-1.01,2.53,-0.69,-0.17,23.21,-6.11,37.88,1
35608,0.05,-0.01,-1.01,2.54,-0.62,-0.09,23.18,-6.13,37.84,1
35619,0.05,-0.01,-1.01,2.45,-0.64,-0.06,23.18,-6.13,37.84,1
35630,0.05,-0.01,-1.01,2.41,-0.58,-0.03,23.18,-6.13,37.84,1
35642,0.05,-0.01,-1.01,2.45,-0.53,-0.01,23.18,-6.13,37.84,1
35654,0.05,-0.01,-1.01,2.88,-0.38,0.3,23.12,-6.16,37.87,1
35666,0.05,-0.01,-1.01,3.09,-0.27,0.47,23.12,-6.16,37.87,1
35678,0.05,-0.01,-1.01,3.1,-0.14,0.49,23.12,-6.16,37.87,1
35690,0.05,-0.01,-1.01,2.17,-0.2,0.11,23.12,-6.16,37.87,1
35702,0.05,-0.01,-1.01,1.53,-0.33,-0.14,23.19,-6.29,37.49,1
35713,0.05,-0.01,-1.01,1.05,-0.62,-0.37,23.19,-6.29,37.49,1
35725,0.05,-0.01,-1.01,1.28,-0.6,-0.32,23.19,-6.29,37.49,1
35736,0.05,-0.01,-1.01,1.54,-0.62,-0.22,23.19,-6.29,37.49,1
35748,0.05,-0.01,-1.01,1.37,-0.69,-0.11,23.19,-6.29,37.49,1
35760,0.04,-0.01,-1.01,0.91,-0.74,-0.2,23.17,-6.22,37.32,1
35772,0.04,-0.02,-1.01,0.48,-0.81,-0.31,23.17,-6.22,37.32,1
35784,0.05,-0.02,-1.01,0.42,-1.08,-0.16,23.17,-6.22,37.32,1
35796,0.05,-0.02,-1.01,0.69,-1.22,-0.03,23.17,-6.22,37.32,1
35808,0.05,-0.02,-1.01,0.99,-1.29,0.12,23.17,-6.38,37.14,1
35819,0.05,-0.02,-1.01,0.93,-1.2,0.16,23.17,-6.38,37.14,1
35830,0.05,-0.02,-1.01,0.86,-1.07,0.21,23.17,-6.38,37.14,1
35841,0.05,-0.02,-1.01,0.93,-0.98,0.28,23.17,-6.38,37.14,1
35854,0.06,-0.02,-1.01,1.48,-0.82,0.64,23.09,-6.41,37.14,1
35865,0.06,-0.02,-1.01,1.66,-0.85,0.77,23.09,-6.41,37.14,1
35876,0.06,-0.02,-1.01,1.39,-0.78,0.67,23.09,-6.41,37.14,1
35887,0.05,-0.02,-1.02,1.15,-0.74,0.64,23.09,-6.41,37.14,1
35899,0.05,-0.02,-1.02,0.98,-0.67,0.61,23.09,-6.41,37.14,1
35911,0.05,-0.02,-1.02,0.96,-0.58,0.67,23.13,-6.37,37.29,1
35922,0.05,-0.02,-1.02,1.06,-0.55,0.71,23.13,-6.37,37.29,1
35934,0.05,-0.02,-1.01,1.18,-0.52,0.77,23.13,-6.37,37.29,1
35948,0.05,-0.03,-1.01,1.36,-0.39,0.76,23.13,-6.37,37.29,1
35959,0.05,-0.03,-1.01,1.47,-0.36,0.72,23.13,-6.37,37.3,1
35972,0.05,-0.03,-1.01,1.8,-0.35,0.68,23.13,-6.37,37.3,1
35983,0.05,-0.03,-1.01,2.01,-0.35,0.76,23.13,-6.37,37.3,1
35994,0.05,-0.03,-1.01,2.21,-0.38,0.88,23.13,-6.37,37.3,1
36007,0.05,-0.02,-1.01,2.14,-0.54,0.89,23.07,-6.3,37.3,1
36019,0.04,-0.02,-1.01,1.95,-0.65,0.79,23.07,-6.3,37.3,1
36033,0.04,-0.02,-1.01,1.8,-0.77,0.79,23.07,-6.3,37.3,1
36043,0.04,-0.02,-1.01,1.82,-0.87,0.82,23.07,-6.3,37.3,1
36054,0.04,-0.02,-1.01,1.75,-1.01,0.84,23.04,-6.35,37.29,1
36067,0.04,-0.02,-1.01,1.38,-1.27,0.78,23.04,-6.35,37.29,1
36078,0.04,-0.02,-1.01,1.33,-1.28,0.76,23.04,-6.35,37.29,1
36089,0.04,-0.02,-1.01,1.48,-1.28,0.86,23.04,-6.35,37.29,1
36103,0.04,-0.02,-1.01,1.86,-1.29,1.17,22.99,-6.26,37.3,1
36114,0.04,-0.02,-1.01,1.78,-1.34,1.22,22.99,-6.26,37.3,1
36126,0.04,-0.02,-1.01,1.42,-1.46,1.08,22.99,-6.26,37.3,1
36137,0.05,-0.02,-1.01,1.44,-1.45,1.11,22.99,-6.26,37.3,1
36149,0.05,-0.02,-1.01,1.66,-1.33,1.25,22.99,-6.26,37.3,1
36162,0.05,-0.02,-1.01,2.07,-1.11,1.35,22.9,-6.35,37.17,1
36172,0.05,-0.02,-1.01,2.06,-1.0,1.2,22.9,-6.35,37.17,1
36183,0.05,-0.02,-1.01,1.95,-0.97,1.03,22.9,-6.35,37.17,1
36194,0.05,-0.02,-1.01,1.92,-0.96,0.79,22.9,-6.35,37.17,1
36206,0.05,-0.02,-1.01,2.1,-0.95,0.83,22.86,-6.41,37.53,1
36218,0.04,-0.02,-1.01,2.27,-0.96,0.85,22.86,-6.41,37.53,1
36230,0.05,-0.02,-1.01,2.09,-1.05,0.67,22.86,-6.41,37.53,1
36242,0.05,-0.02,-1.01,1.79,-1.21,0.54,22.86,-6.41,37.53,1
36253,0.05,-0.02,-1.01,1.52,-1.4,0.46,22.79,-6.42,37.63,1
36265,0.05,-0.02,-1.02,1.32,-1.52,0.25,22.79,-6.42,37.63,1
36277,0.05,-0.02,-1.02,1.31,-1.42,0.06,22.79,-6.42,37.63,1
36290,0.05,-0.02,-1.02,1.65,-1.13,-0.02,22.79,-6.42,37.63,1
36302,0.05,-0.02,-1.01,1.87,-0.93,-0.02,22.84,-6.53,37.52,1
36314,0.05,-0.02,-1.01,2.04,-0.76,-0.0,22.84,-6.53,37.52,1
36325,0.05,-0.02,-1.01,1.92,-0.77,-0.12,22.84,-6.53,37.52,1
36336,0.05,-0.02,-1.01,1.85,-0.83,-0.23,22.84,-6.53,37.52,1
36347,0.05,-0.02,-1.01,1.87,-0.83,-0.3,22.84,-6.53,37.52,1
36361,0.05,-0.02,-1.01,1.83,-0.96,-0.35,22.86,-6.48,37.58,1
36372,0.05,-0.02,-1.01,1.71,-1.02,-0.41,22.86,-6.48,37.58,1
36385,0.04,-0.02,-1.01,1.52,-1.02,-0.69,22.86,-6.48,37.58,1
36396,0.04,-0.02,-1.01,1.64,-0.93,-0.73,22.86,-6.48,37.58,1
36409,0.04,-0.02,-1.01,2.18,-0.89,-0.53,22.76,-6.5,37.35,1
36420,0.04,-0.02,-1.01,2.28,-0.95,-0.44,22.76,-6.5,37.35,1
36432,0.04,-0.02,-1.01,2.12,-1.08,-0.36,22.76,-6.5,37.35,1
36442,0.04,-0.02,-1.01,1.79,-1.27,-0.33,22.76,-6.5,37.35,1
36455,0.05,-0.02,-1.02,1.55,-1.42,-0.24,22.7,-6.55,37.43,1
36467,0.05,-0.02,-1.02,1.67,-1.38,-0.18,22.7,-6.55,37.43,1
36478,0.05,-0.02,-1.02,1.73,-1.23,-0.24,22.7,-6.55,37.43,1
36489,0.05,-0.02,-1.02,1.61,-1.27,-0.32,22.7,-6.55,37.43,1
36502,0.05,-0.02,-1.01,1.42,-1.3,-0.35,22.81,-6.55,37.27,1
36514,0.05,-0.02,-1.01,0.98,-1.33,-0.35,22.81,-6.55,37.27,1
36526,0.05,-0.02,-1.01,0.96,-1.26,-0.35,22.81,-6.55,37.27,1
36540,0.05,-0.02,-1.01,1.53,-1.03,-0.23,22.81,-6.55,37.27,1
36551,0.05,-0.02,-1.01,1.84,-0.91,-0.08,22.77,-6.54,37.31,1
36564,0.05,-0.02,-1.01,1.98,-0.79,0.07,22.77,-6.54,37.31,1
36575,0.05,-0.02,-1.01,1.77,-0.76,0.0,22.77,-6.54,37.31,1
36587,0.05,-0.02,-1.01,1.72,-0.82,-0.03,22.77,-6.54,37.31,1
36598,0.05,-0.02,-1.01,1.97,-1.0,0.0,22.77,-6.54,37.31,1
36610,0.05,-0.02,-1.01,2.14,-1.0,0.1,22.79,-6.5,37.44,1
36622,0.05,-0.02,-1.01,2.29,-1.02,0.21,22.79,-6.5,37.44,1
36634,0.05,-0.02,-1.01,1.96,-1.09,0.15,22.79,-6.5,37.44,1
36645,0.05,-0.02,-1.01,1.59,-1.1,0.09,22.79,-6.5,37.44,1
36657,0.05,-0.02,-1.01,1.29,-1.25,-0.01,22.81,-6.57,37.44,1
36669,0.05,-0.02,-1.01,1.17,-1.45,-0.15,22.81,-6.57,37.44,1
36681,0.05,-0.02,-1.01,1.22,-1.44,-0.19,22.81,-6.57,37.44,1
36694,0.05,-0.02,-1.01,1.46,-1.53,-0.19,22.81,-6.57,37.44,1
36706,0.04,-0.02,-1.01,1.73,-1.27,-0.12,22.74,-6.46,37.33,1
36719,0.04,-0.02,-1.0,1.65,-1.4,0.06,22.74,-6.46,37.33,1
36731,0.04,-0.02,-1.0,1.42,-1.59,0.01,22.74,-6.46,37.33,1
36744,0.04,-0.03,-1.01,1.3,-1.91,0.1,22.74,-6.46,37.33,1
36756,0.04,-0.03,-1.01,1.63,-2.02,0.09,22.71,-6.4,37.66,1
36766,0.04,-0.03,-1.02,2.04,-1.93,-0.08,22.71,-6.4,37.66,1
36779,0.04,-0.04,-1.02,2.41,-1.22,-0.87,22.71,-6.4,37.66,1
36790,0.04,-0.04,-1.02,2.83,-1.09,-0.61,22.71,-6.4,37.66,1
36801,0.04,-0.04,-1.02,3.48,-1.24,-0.33,22.75,-6.39,37.46,1
36815,0.05,-0.04,-1.02,4.81,-0.98,-0.36,22.75,-6.39,37.46,1
36826,0.05,-0.04,-1.02,5.39,-0.65,-0.34,22.75,-6.39,37.46,1
36837,0.05,-0.03,-1.01,5.78,-0.6,-0.26,22.75,-6.39,37.46,1
36849,0.06,-0.02,-1.01,5.77,-0.58,-0.42,22.75,-6.39,37.46,1
36860,0.06,-0.01,-1.02,5.69,-0.5,-0.45,22.81,-6.41,37.45,1
36873,0.06,-0.01,-1.02,5.88,-0.3,-0.18,22.81,-6.41,37.45,1
36884,0.06,0.0,-1.01,5.77,-0.23,-0.02,22.81,-6.41,37.45,1
36896,0.06,0.01,-1.01,5.3,-0.24,-0.0,22.81,-6.41,37.45,1
36909,0.06,0.02,-1.02,3.99,-0.37,-0.06,22.83,-6.42,37.72,1
36921,0.06,0.02,-1.02,3.55,-0.35,0.01,22.83,-6.42,37.72,1
36931,0.06,0.02,-1.02,3.25,-0.29,0.12,22.83,-6.42,37.72,1
36942,0.06,0.02,-1.01,2.37,-0.14,0.15,22.83,-6.42,37.72,1
36954,0.05,0.02,-1.01,1.62,-0.15,0.08,22.89,-6.46,37.84,1
36964,0.05,0.02,-1.01,0.87,-0.18,0.04,22.89,-6.46,37.84,1
36974,0.04,0.02,-1.01,0.32,-0.16,0.05,22.89,-6.46,37.84,1
36986,0.04,0.01,-1.01,0.18,-0.11,0.65,22.89,-6.46,37.84,1
36997,0.04,0.01,-1.01,0.3,-0.1,0.96,22.89,-6.46,37.84,1
37008,0.04,0.0,-1.01,0.3,-0.08,1.17,22.91,-6.41,37.6,1
37020,0.04,-0.0,-1.01,-0.34,-0.01,1.07,22.91,-6.41,37.6,1
37032,0.04,-0.01,-1.01,-0.74,-0.07,1.01,22.91,-6.41,37.6,1
37046,0.04,-0.02,-1.02,-1.33,-0.24,0.96,22.91,-6.41,37.6,1
37057,0.04,-0.02,-1.02,-1.38,-0.29,0.98,22.88,-6.52,37.51,1
37069,0.04,-0.03,-1.02,-1.27,-0.26,0.98,22.88,-6.52,37.51,1
37081,0.04,-0.03,-1.02,-1.0,-0.28,0.98,22.88,-6.52,37.51,1
37093,0.04,-0.04,-1.01,-1.12,-0.44,0.9,22.88,-6.52,37.51,1
37106,0.04,-0.04,-1.02,-1.49,-0.9,0.48,22.99,-6.44,37.33,1
37118,0.04,-0.04,-1.02,-1.39,-1.01,0.34,22.99,-6.44,37.33,1
37131,0.04,-0.05,-1.02,-0.69,-0.96,0.12,22.99,-6.44,37.33,1
37142,0.04,-0.05,-1.01,-0.43,-0.95,-0.07,22.99,-6.44,37.33,1
37154,0.04,-0.05,-1.01,-0.36,-0.94,-0.34,22.96,-6.38,37.28,1
37166,0.04,-0.04,-1.01,-0.26,-0.96,-0.93,22.96,-6.38,37.28,1
37178,0.04,-0.04,-1.01,-0.04,-0.93,-1.16,22.96,-6.38,37.28,1
37192,0.04,-0.04,-1.0,0.96,-0.92,-1.17,22.96,-6.38,37.28,1
37203,0.04,-0.04,-1.0,1.4,-1.07,-1.06,22.94,-6.25,37.28,1
37215,0.04,-0.03,-1.0,1.59,-1.29,-1.05,22.94,-6.25,37.28,1
37227,0.04,-0.03,-1.0,1.36,-1.66,-1.36,22.94,-6.25,37.28,1
37239,0.04,-0.03,-1.0,1.42,-1.83,-1.44,22.94,-6.25,37.28,1
37250,0.04,-0.03,-1.0,1.71,-1.98,-1.39,22.88,-6.23,37.45,1
37261,0.04,-0.02,-1.0,2.18,-2.08,-1.26,22.88,-6.23,37.45,1
37273,0.04,-0.02,-1.01,2.55,-2.12,-1.06,22.88,-6.23,37.45,1
37287,0.04,-0.01,-1.01,2.61,-2.14,-1.31,22.88,-6.23,37.45,1
37299,0.04,-0.01,-1.01,2.48,-2.05,-1.21,22.92,-6.14,37.36,1
37311,0.04,-0.01,-1.01,2.47,-2.21,-0.74,22.92,-6.14,37.36,1
37322,0.05,-0.01,-1.01,2.62,-2.17,-0.5,22.92,-6.14,37.36,1
37333,0.05,-0.01,-1.02,2.86,-2.01,-0.12,22.92,-6.14,37.36,1
37344,0.05,-0.01,-1.02,3.1,-1.82,0.23,22.92,-6.14,37.36,1
37357,0.05,-0.01,-1.02,3.29,-1.28,0.56,22.94,-6.13,37.49,1
37368,0.05,-0.01,-1.02,3.15,-1.13,0.7,22.94,-6.13,37.49,1
37381,0.05,-0.01,-1.01,2.32,-1.22,0.71,22.94,-6.13,37.49,1
37392,0.05,-0.01,-1.01,1.95,-1.32,0.66,22.94,-6.13,37.49,1
37403,0.05,-0.01,-1.01,1.75,-1.44,0.63,23.02,-6.17,37.44,1
37415,0.05,-0.02,-1.01,1.69,-1.61,0.71,23.02,-6.17,37.44,1
37427,0.05,-0.02,-1.02,1.71,-1.57,0.67,23.02,-6.17,37.44,1
37441,0.05,-0.02,-1.02,1.7,-1.4,0.53,23.02,-6.17,37.44,1
37452,0.05,-0.02,-1.01,1.69,-1.26,0.33,23.05,-6.13,37.34,1
37463,0.05,-0.02,-1.01,1.68,-1.13,0.16,23.05,-6.13,37.34,1
37475,0.05,-0.02,-1.01,1.86,-1.05,0.03,23.05,-6.13,37.34,1
37487,0.05,-0.02,-1.01,2.01,-1.14,0.05,23.05,-6.13,37.34,1
37501,0.05,-0.02,-1.01,2.11,-1.22,-0.06,23.02,-6.22,37.34,1
37513,0.05,-0.02,-1.01,1.97,-1.17,-0.22,23.02,-6.22,37.34,1
37523,0.05,-0.02,-1.01,1.78,-1.05,-0.41,23.02,-6.22,37.34,1
37534,0.05,-0.02,-1.01,1.6,-1.0,-0.44,23.02,-6.22,37.34,1
37545,0.05,-0.01,-1.01,1.44,-1.03,-0.4,23.02,-6.22,37.34,1
37556,0.05,-0.01,-1.01,1.13,-1.17,-0.39,22.95,-6.2,37.37,1
37570,0.04,-0.01,-1.01,0.47,-1.38,-0.45,22.95,-6.2,37.37,1
37582,0.04,-0.02,-1.01,0.38,-1.45,-0.37,22.95,-6.2,37.37,1
37595,0.04,-0.02,-1.01,0.75,-1.45,-0.01,22.95,-6.2,37.37,1
37607,0.05,-0.02,-1.01,0.95,-1.5,0.12,22.91,-6.15,37.14,1
37617,0.05,-0.02,-1.01,1.01,-1.54,0.18,22.91,-6.15,37.14,1
37630,0.05,-0.02,-1.01,0.99,-1.51,0.27,22.91,-6.15,37.14,1
37642,0.05,-0.02,-1.01,1.02,-1.55,0.33,22.91,-6.15,37.14,1
37654,0.05,-0.03,-1.01,1.02,-1.6,0.25,22.9,-6.11,37.11,1
37665,0.05,-0.03,-1.02,1.0,-1.59,0.13,22.9,-6.11,37.11,1
37676,0.05,-0.03,-1.02,0.97,-1.49,-0.03,22.9,-6.11,37.11,1
37687,0.05,-0.03,-1.02,0.94,-1.34,-0.13,22.9,-6.11,37.11,1
37700,0.05,-0.03,-1.01,1.18,-0.96,-0.31,22.91,-6.16,37.22,1
37712,0.05,-0.03,-1.01,1.37,-0.82,-0.39,22.91,-6.16,37.22,1
37723,0.05,-0.03,-1.01,1.55,-0.81,-0.43,22.91,-6.16,37.22,1
37734,0.05,-0.03,-1.01,1.48,-0.92,-0.45,22.91,-6.16,37.22,1
37746,0.04,-0.03,-1.01,1.37,-1.04,-0.53,22.91,-6.16,37.22,1
37759,0.04,-0.02,-1.01,1.23,-1.36,-0.63,22.88,-6.15,37.15,1
37771,0.04,-0.02,-1.01,1.25,-1.41,-0.68,22.88,-6.15,37.15,1
37781,0.04,-0.02,-1.01,1.37,-1.41,-0.72,22.88,-6.15,37.15,1
37793,0.04,-0.02,-1.01,1.66,-1.32,-0.61,22.88,-6.15,37.15,1
37804,0.04,-0.02,-1.01,1.74,-1.2,-0.57,22.87,-6.04,37.15,1
37816,0.04,-0.02,-1.01,1.76,-1.11,-0.6,22.87,-6.04,37.15,1
37828,0.04,-0.02,-1.01,1.76,-1.09,-0.64,22.87,-6.04,37.15,1
37840,0.04,-0.02,-1.01,1.91,-1.17,-0.47,22.87,-6.04,37.15,1
37852,0.05,-0.02,-1.01,2.13,-1.38,-0.06,22.89,-6.01,37.22,1
37863,0.05,-0.02,-1.01,2.01,-1.39,0.01,22.89,-6.01,37.22,1
37874,0.05,-0.02,-1.01,1.86,-1.4,0.05,22.89,-6.01,37.22,1
37888,0.05,-0.02,-1.01,1.74,-1.78,0.12,22.89,-6.01,37.22,1
37899,0.05,-0.02,-1.01,1.7,-1.88,0.04,22.78,-5.95,37.17,1
37912,0.05,-0.02,-1.01,1.85,-1.83,-0.1,22.78,-5.95,37.17,1
37923,0.05,-0.02,-1.01,1.98,-1.78,0.02,22.78,-5.95,37.17,1
37935,0.05,-0.02,-1.01,2.12,-1.8,0.25,22.78,-5.95,37.17,1
37946,0.05,-0.02,-1.01,2.0,-1.87,0.47,22.78,-5.95,37.17,1
37958,0.05,-0.02,-1.01,1.8,-1.89,0.48,22.76,-6.0,37.39,1
37970,0.05,-0.02,-1.01,1.63,-1.92,0.43,22.76,-6.0,37.39,1
37982,0.05,-0.02,-1.01,1.77,-1.68,0.39,22.76,-6.0,37.39,1
