time,acc_x,acc_y,acc_z,gyro_x,gyro_y,gyro_z,mag_x,mag_y,mag_z,label
2199030,0.04,-1.0,0.09,-2.38,-2.99,7.74,20.76,47.85,19.21,2
2199045,0.05,-1.0,0.09,-2.49,-2.65,7.0,20.89,47.9,19.15,2
2199057,0.05,-1.0,0.09,-2.33,-2.48,6.3,20.89,47.9,19.15,2
2199067,0.06,-1.0,0.1,-2.1,-2.45,5.48,20.89,47.9,19.15,2
2199078,0.06,-1.0,0.1,-1.67,-2.72,4.49,20.89,47.9,19.15,2
2199090,0.05,-1.0,0.09,-1.58,-2.97,4.56,20.89,47.9,19.15,2
2199101,0.05,-1.0,0.09,-1.7,-3.08,5.08,21.07,47.98,18.83,2
2199113,0.05,-1.0,0.09,-2.53,-3.07,6.51,21.07,47.98,18.83,2
2199125,0.06,-1.01,0.09,-3.3,-3.12,7.3,21.07,47.98,18.83,2
2199135,0.06,-1.01,0.09,-4.28,-3.3,8.38,21.07,47.98,18.83,2
2199147,0.06,-1.01,0.09,-7.17,-4.05,12.06,21.31,48.01,18.72,2
2199159,0.05,-1.01,0.09,-8.93,-4.49,14.67,21.31,48.01,18.72,2
2199173,0.07,-0.99,0.1,-11.43,-3.95,18.16,21.31,48.01,18.72,2
2199184,0.07,-0.99,0.11,-11.57,-3.52,17.8,21.31,48.01,18.72,2
2199196,0.08,-0.98,0.12,-11.31,-3.14,17.07,21.56,48.07,18.51,2
2199208,0.09,-0.99,0.12,-10.19,-2.34,15.92,21.56,48.07,18.51,2
2199219,0.09,-0.99,0.13,-9.63,-2.27,15.47,21.56,48.07,18.51,2
2199232,0.1,-0.99,0.13,-8.69,-2.72,14.7,21.56,48.07,18.51,2
2199243,0.1,-1.0,0.13,-8.4,-2.85,14.28,21.87,48.1,18.2,2
2199255,0.1,-0.99,0.13,-8.2,-2.91,13.87,21.87,48.1,18.2,2
2199266,0.1,-0.99,0.13,-7.86,-2.79,12.81,21.87,48.1,18.2,2
2199277,0.11,-0.98,0.13,-7.46,-2.64,11.6,21.87,48.1,18.2,2
2199289,0.11,-0.98,0.13,-6.99,-2.58,10.23,21.87,48.1,18.2,2
2199301,0.11,-0.99,0.14,-6.8,-2.69,8.91,22.18,48.08,17.95,2
2199313,0.11,-0.99,0.14,-6.85,-2.62,8.82,22.18,48.08,17.95,2
2199326,0.11,-0.98,0.14,-6.11,-2.3,8.01,22.18,48.08,17.95,2
2199337,0.12,-0.98,0.15,-5.33,-2.17,7.09,22.18,48.08,17.95,2
2199348,0.12,-0.98,0.15,-4.53,-2.07,6.32,22.55,48.13,17.73,2
2199361,0.12,-0.99,0.15,-3.41,-2.24,5.5,22.55,48.13,17.73,2
2199372,0.12,-0.99,0.15,-3.08,-2.5,5.29,22.55,48.13,17.73,2
2199382,0.12,-0.99,0.15,-2.78,-2.64,4.89,22.55,48.13,17.73,2
2199392,0.12,-0.99,0.15,-2.47,-2.67,4.2,22.87,48.19,17.67,2
2199404,0.12,-0.99,0.15,-2.36,-2.36,3.61,22.87,48.19,17.67,2
2199415,0.11,-0.99,0.15,-2.67,-1.93,3.98,22.87,48.19,17.67,2
2199425,0.11,-0.99,0.15,-3.05,-1.49,4.44,22.87,48.19,17.67,2
2199435,0.12,-0.99,0.15,-3.34,-1.14,4.6,22.87,48.19,17.67,2
2199448,0.13,-0.98,0.16,-3.2,-1.34,3.53,23.17,48.14,17.25,2
2199458,0.13,-0.98,0.16,-2.88,-1.65,2.88,23.17,48.14,17.25,2
2199468,0.13,-0.98,0.16,-2.57,-1.79,2.46,23.17,48.14,17.25,2
2199479,0.12,-0.98,0.16,-2.33,-1.9,2.26,23.17,48.14,17.25,2
2199491,0.12,-0.98,0.16,-2.09,-1.82,2.1,23.17,48.14,17.25,2
2199502,0.12,-0.98,0.16,-2.07,-1.51,2.24,23.5,48.17,16.95,2
2199515,0.13,-0.98,0.16,-1.84,-1.5,1.52,23.5,48.17,16.95,2
2199525,0.13,-0.98,0.17,-1.58,-1.54,1.02,23.5,48.17,16.95,2
2199536,0.13,-0.98,0.17,-1.27,-1.61,0.72,23.5,48.17,16.95,2
2199546,0.13,-0.98,0.17,-0.98,-1.76,0.45,23.72,48.34,16.71,2
2199557,0.13,-0.98,0.17,-0.44,-2.02,-0.16,23.72,48.34,16.71,2
2199569,0.13,-0.98,0.17,-0.1,-2.01,-0.58,23.72,48.34,16.71,2
2199580,0.13,-0.98,0.17,0.43,-2.01,-1.22,23.72,48.34,16.71,2
2199595,0.13,-0.98,0.17,1.46,-2.23,-2.7,23.88,48.43,16.42,2
2199607,0.12,-0.99,0.16,1.57,-2.15,-2.75,23.88,48.43,16.42,2
2199618,0.12,-0.99,0.16,1.05,-1.66,-1.83,23.88,48.43,16.42,2
2199629,0.11,-0.99,0.16,0.7,-1.39,-1.13,23.88,48.43,16.42,2
2199640,0.12,-0.98,0.16,0.42,-1.14,-0.47,23.88,48.43,16.42,2
2199652,0.12,-0.98,0.17,0.49,-1.13,-0.15,23.95,48.44,16.33,2
2199663,0.13,-0.98,0.17,0.82,-1.35,-0.4,23.95,48.44,16.33,2
2199675,0.13,-0.98,0.17,1.26,-1.46,-0.69,23.95,48.44,16.33,2
2199685,0.12,-0.98,0.17,1.72,-1.51,-0.95,23.95,48.44,16.33,2
2199697,0.12,-0.99,0.16,2.15,-1.77,-1.14,24.09,48.57,16.13,2
2199709,0.12,-0.99,0.16,2.1,-1.89,-0.9,24.09,48.57,16.13,2
2199723,0.12,-0.99,0.16,2.01,-2.11,-1.01,24.09,48.57,16.13,2
2199733,0.12,-0.98,0.16,2.11,-2.11,-1.26,24.09,48.57,16.13,2
2199744,0.11,-0.98,0.16,2.3,-2.04,-1.48,24.23,48.62,16.05,2
2199757,0.12,-0.98,0.17,2.65,-2.18,-1.9,24.23,48.62,16.05,2
2199769,0.12,-0.98,0.17,2.78,-2.24,-2.06,24.23,48.62,16.05,2
2199779,0.12,-0.99,0.16,2.91,-2.22,-2.16,24.23,48.62,16.05,2
2199790,0.11,-0.99,0.16,2.96,-1.8,-2.24,24.23,48.62,16.05,2
2199801,0.11,-0.98,0.16,2.91,-1.51,-2.28,24.26,48.67,15.99,2
2199813,0.12,-0.98,0.16,3.01,-1.3,-2.57,24.26,48.67,15.99,2
2199824,0.12,-0.98,0.16,3.63,-0.83,-3.41,24.26,48.67,15.99,2
2199835,0.12,-0.98,0.17,3.96,-0.77,-3.84,24.26,48.67,15.99,2
2199846,0.12,-0.98,0.16,4.31,-0.64,-4.33,24.18,48.67,15.86,2
2199860,0.11,-0.98,0.16,5.08,-0.13,-6.4,24.18,48.67,15.86,2
2199870,0.11,-0.98,0.16,5.8,-0.01,-7.71,24.18,48.67,15.86,2
2199880,0.11,-0.98,0.16,6.58,0.06,-8.74,24.18,48.67,15.86,2
2199892,0.11,-0.98,0.16,7.23,0.11,-9.37,24.06,48.64,15.76,2
2199903,0.1,-0.99,0.16,7.79,0.17,-9.75,24.06,48.64,15.76,2
2199915,0.09,-0.99,0.15,8.13,0.21,-10.38,24.06,48.64,15.76,2
2199925,0.09,-0.99,0.15,8.34,0.13,-10.93,24.06,48.64,15.76,2
2199935,0.09,-0.99,0.15,8.15,0.18,-10.92,24.06,48.64,15.76,2
2199947,0.08,-0.99,0.14,8.0,0.31,-10.67,23.86,48.59,16.05,2
2199959,0.09,-0.99,0.15,8.04,0.25,-10.84,23.86,48.59,16.05,2
2199970,0.1,-0.99,0.15,8.83,-0.72,-12.58,23.86,48.59,16.05,2
2199981,0.1,-0.99,0.15,9.3,-1.33,-13.32,23.86,48.59,16.05,2
2199992,0.09,-0.99,0.15,9.66,-1.59,-13.45,23.66,48.66,16.14,2
2200004,0.08,-0.99,0.14,10.07,-1.18,-13.11,23.66,48.66,16.14,2
2200015,0.08,-0.99,0.13,10.22,-0.88,-13.41,23.66,48.66,16.14,2
2200026,0.08,-1.0,0.13,10.33,-0.74,-13.86,23.66,48.66,16.14,2
2200036,0.08,-1.0,0.13,10.25,-0.93,-14.25,23.66,48.66,16.14,2
2200047,0.08,-1.0,0.13,9.73,-1.27,-14.59,23.3,48.71,16.43,2
2200058,0.06,-1.0,0.13,9.35,-1.29,-14.36,23.3,48.71,16.43,2
2200070,0.06,-0.99,0.13,9.09,-1.15,-14.03,23.3,48.71,16.43,2
2200084,0.05,-0.99,0.12,9.26,-0.82,-13.89,23.3,48.71,16.43,2
2200094,0.05,-0.99,0.12,9.63,-0.69,-14.02,22.93,48.76,16.71,2
2200107,0.04,-0.99,0.13,10.33,-0.25,-13.45,22.93,48.76,16.71,2
2200118,0.04,-0.99,0.12,10.57,0.1,-12.66,22.93,48.76,16.71,2
2200130,0.04,-1.0,0.12,10.65,0.22,-11.69,22.93,48.76,16.71,2
2200140,0.04,-1.0,0.12,10.62,0.25,-10.61,22.93,48.76,16.71,2
2200152,0.04,-1.0,0.11,10.05,-0.12,-8.31,22.47,48.74,17.18,2
2200164,0.03,-1.0,0.11,9.68,-0.47,-7.33,22.47,48.74,17.18,2
2200178,0.03,-0.99,0.1,9.38,-1.4,-6.08,22.47,48.74,17.18,2
2200189,0.02,-0.99,0.1,9.39,-1.8,-5.68,22.47,48.74,17.18,2
2200200,0.02,-0.99,0.1,9.44,-2.12,-5.25,22.08,48.7,17.3,2
2200212,0.02,-1.0,0.1,9.1,-2.69,-5.15,22.08,48.7,17.3,2
2200224,0.02,-1.01,0.1,8.71,-3.03,-5.39,22.08,48.7,17.3,2
2200238,0.01,-1.01,0.09,7.61,-3.28,-4.83,22.08,48.7,17.3,2
2200249,0.01,-1.0,0.09,7.07,-3.27,-4.26,21.82,48.65,17.68,2
2200260,0.01,-1.0,0.09,6.62,-3.18,-3.62,21.82,48.65,17.68,2
2200272,0.01,-1.0,0.09,5.88,-2.76,-1.65,21.82,48.65,17.68,2
2200284,0.01,-1.0,0.09,5.55,-2.61,-0.68,21.82,48.65,17.68,2
2200296,0.01,-1.0,0.09,5.1,-2.45,0.28,21.51,48.52,17.79,2
2200307,0.02,-1.01,0.09,4.95,-2.37,0.5,21.51,48.52,17.79,2
2200319,0.02,-1.0,0.09,4.78,-2.36,0.78,21.51,48.52,17.79,2
2200332,0.02,-1.0,0.09,4.39,-2.26,1.53,21.51,48.52,17.79,2
2200343,0.01,-1.0,0.09,4.15,-2.1,1.72,21.22,48.46,17.88,2
2200355,0.01,-1.0,0.09,3.95,-1.81,1.81,21.22,48.46,17.88,2
2200367,0.02,-1.0,0.09,3.58,-1.0,2.29,21.22,48.46,17.88,2
2200378,0.02,-1.0,0.09,3.42,-0.71,2.31,21.22,48.46,17.88,2
2200392,0.03,-1.0,0.09,3.38,-0.55,1.08,21.07,48.34,17.97,2
2200402,0.03,-1.0,0.09,3.34,-0.54,0.37,21.07,48.34,17.97,2
2200413,0.03,-1.0,0.09,3.19,-0.45,-0.11,21.07,48.34,17.97,2
2200427,0.02,-1.0,0.08,2.47,0.15,-0.34,21.07,48.34,17.97,2
2200438,0.02,-1.0,0.08,2.03,0.48,-0.32,21.07,48.34,17.97,2
2200449,0.02,-1.0,0.09,1.64,0.83,-0.24,20.98,48.25,17.86,2
2200461,0.02,-0.99,0.09,1.57,1.96,0.28,20.98,48.25,17.86,2
2200473,0.02,-0.99,0.09,2.12,2.44,0.03,20.98,48.25,17.86,2
2200483,0.03,-0.99,0.1,3.05,2.8,-0.51,20.98,48.25,17.86,2
2200495,0.03,-1.0,0.09,5.09,2.55,-1.96,20.87,48.34,17.82,2
2200507,0.03,-1.0,0.09,5.8,2.27,-2.38,20.87,48.34,17.82,2
2200520,0.02,-1.0,0.08,6.31,2.05,-2.25,20.87,48.34,17.82,2
2200530,0.01,-1.0,0.08,6.2,2.14,-1.9,20.87,48.34,17.82,2
2200541,0.01,-1.0,0.07,5.91,2.14,-1.62,20.81,48.28,18.03,2
2200554,0.02,-1.0,0.07,5.17,1.89,-1.59,20.81,48.28,18.03,2
2200565,0.02,-1.0,0.08,4.86,1.61,-1.72,20.81,48.28,18.03,2
2200576,0.02,-1.0,0.08,4.57,1.24,-1.79,20.81,48.28,18.03,2
2200591,0.01,-1.01,0.07,3.79,0.51,-0.94,20.8,48.24,18.21,2
2200601,0.01,-1.0,0.07,3.25,0.44,-0.14,20.8,48.24,18.21,2
2200611,0.01,-1.0,0.07,2.77,0.63,0.43,20.8,48.24,18.21,2
2200624,0.01,-1.0,0.08,2.49,1.17,0.8,20.8,48.24,18.21,2
2200635,0.02,-1.0,0.08,2.64,1.29,0.95,20.8,48.24,18.21,2
2200646,0.02,-1.0,0.08,2.92,1.44,1.06,20.73,48.25,18.55,2
2200658,0.02,-1.0,0.08,3.75,1.58,0.97,20.73,48.25,18.55,2
2200670,0.02,-1.0,0.08,4.24,1.53,0.82,20.73,48.25,18.55,2
2200681,0.02,-1.0,0.08,4.73,1.45,0.72,20.73,48.25,18.55,2
2200694,0.02,-1.0,0.08,5.55,1.4,0.46,20.68,48.14,18.75,2
2200704,0.02,-1.0,0.07,5.94,1.37,0.47,20.68,48.14,18.75,2
2200714,0.02,-1.0,0.07,6.25,1.58,0.51,20.68,48.14,18.75,2
2200727,0.02,-1.0,0.07,6.87,2.12,0.97,20.68,48.14,18.75,2
2200739,0.01,-1.0,0.07,7.18,2.34,1.47,20.68,48.14,18.75,2
2200750,0.01,-1.0,0.07,7.47,2.45,2.31,20.63,47.99,19.06,2
2200762,0.02,-1.0,0.07,8.05,2.59,4.62,20.63,47.99,19.06,2
2200773,0.02,-1.0,0.07,8.43,2.56,5.92,20.63,47.99,19.06,2
2200786,0.02,-1.0,0.06,9.03,2.08,7.58,20.63,47.99,19.06,2
2200797,0.03,-1.0,0.06,9.25,1.58,7.93,20.69,47.87,19.24,2
2200809,0.03,-1.0,0.06,9.33,1.0,8.29,20.69,47.87,19.24,2
2200820,0.03,-1.01,0.05,9.89,-0.26,9.93,20.69,47.87,19.24,2
2200831,0.03,-1.0,0.04,8.91,-0.13,10.54,20.69,47.87,19.24,2
2200842,0.03,-1.0,0.05,7.92,0.14,10.19,20.75,47.8,19.56,2
2200852,0.04,-1.0,0.05,7.33,0.3,9.02,20.75,47.8,19.56,2
2200865,0.05,-1.0,0.05,7.0,0.17,6.26,20.75,47.8,19.56,2
2200877,0.05,-1.0,0.05,6.99,-0.08,5.15,20.75,47.8,19.56,2
2200887,0.05,-1.0,0.05,6.97,-0.22,4.14,20.75,47.8,19.56,2
2200899,0.04,-1.0,0.04,6.79,-0.27,2.74,20.85,47.68,19.78,2
2200911,0.04,-1.0,0.04,6.57,-0.14,2.22,20.85,47.68,19.78,2
2200925,0.05,-1.01,0.04,5.84,-0.03,1.27,20.85,47.68,19.78,2
2200936,0.05,-1.01,0.04,5.28,0.01,1.02,20.85,47.68,19.78,2
2200947,0.04,-1.01,0.04,4.64,0.19,0.94,20.93,47.61,19.89,2
2200959,0.04,-1.01,0.04,3.38,0.89,0.39,20.93,47.61,19.89,2
2200969,0.05,-1.0,0.04,2.89,1.15,-0.22,20.93,47.61,19.89,2
2200979,0.05,-1.0,0.04,2.63,1.29,-0.99,20.93,47.61,19.89,2
2200991,0.06,-1.0,0.04,2.64,1.23,-2.09,20.97,47.4,19.96,2
2201002,0.05,-1.0,0.04,2.92,0.99,-3.45,20.97,47.4,19.96,2
2201014,0.05,-1.0,0.04,3.37,0.76,-4.63,20.97,47.4,19.96,2
2201024,0.04,-1.0,0.04,3.98,0.6,-5.22,20.97,47.4,19.96,2
2201035,0.03,-1.0,0.04,5.03,0.74,-5.62,20.97,47.4,19.96,2
2201046,0.03,-1.0,0.04,5.55,0.86,-5.75,20.99,47.3,20.05,2
2201058,0.03,-1.0,0.04,5.98,0.82,-5.85,20.99,47.3,20.05,2
2201069,0.03,-1.01,0.04,6.49,0.13,-5.53,20.99,47.3,20.05,2
2201080,0.03,-1.01,0.03,6.5,-0.41,-5.12,20.99,47.3,20.05,2
2201091,0.03,-1.0,0.03,6.31,-0.87,-4.72,20.93,47.28,20.13,2
2201105,0.02,-1.0,0.02,5.82,-1.54,-4.69,20.93,47.28,20.13,2
2201116,0.02,-1.01,0.02,5.34,-1.86,-4.56,20.93,47.28,20.13,2
2201127,0.02,-1.01,0.02,4.72,-2.16,-4.06,20.93,47.28,20.13,2
2201138,0.01,-1.01,0.02,3.44,-2.51,-2.35,20.93,47.28,20.13,2
2201150,0.01,-1.01,0.02,2.91,-2.56,-1.21,20.72,47.24,20.2,2
2201160,0.02,-1.01,0.02,2.53,-2.56,-0.15,20.72,47.24,20.2,2
2201170,0.01,-1.01,0.02,2.18,-2.48,0.69,20.72,47.24,20.2,2
2201181,0.02,-1.01,0.02,1.49,-2.61,1.9,20.72,47.24,20.2,2
2201192,0.03,-1.01,0.03,1.04,-2.67,2.07,20.62,47.31,20.24,2
2201204,0.03,-1.0,0.03,0.73,-2.74,1.83,20.62,47.31,20.24,2
2201215,0.03,-1.0,0.03,0.44,-2.67,0.64,20.62,47.31,20.24,2
2201226,0.02,-1.0,0.03,0.34,-2.56,0.51,20.62,47.31,20.24,2
2201238,0.02,-1.01,0.03,0.24,-2.36,0.74,20.62,47.31,20.24,2
2201249,0.02,-1.0,0.03,0.02,-1.85,0.78,20.49,47.42,20.22,2
2201260,0.03,-1.0,0.03,0.03,-1.68,0.23,20.49,47.42,20.22,2
2201272,0.03,-1.0,0.03,0.13,-1.74,-0.6,20.49,47.42,20.22,2
2201285,0.02,-1.0,0.03,0.26,-2.03,-1.56,20.49,47.42,20.22,2
2201296,0.01,-1.01,0.03,0.15,-1.97,-1.2,20.44,47.47,20.32,2
2201307,0.01,-1.01,0.03,-0.15,-1.9,-0.29,20.44,47.47,20.32,2
2201317,0.01,-1.01,0.03,-0.62,-1.75,0.84,20.44,47.47,20.32,2
2201329,0.01,-1.0,0.03,-1.36,-1.17,3.16,20.44,47.47,20.32,2
2201340,0.02,-1.0,0.04,-1.46,-1.03,4.11,20.4,47.54,20.26,2
2201350,0.03,-1.0,0.04,-1.25,-1.17,4.81,20.4,47.54,20.26,2
2201360,0.04,-1.0,0.04,-0.72,-1.48,4.88,20.4,47.54,20.26,2
2201372,0.04,-1.0,0.04,0.88,-2.58,2.93,20.4,47.54,20.26,2
2201382,0.03,-1.0,0.04,1.51,-3.1,1.96,20.4,47.54,20.26,2
2201392,0.03,-1.0,0.03,1.9,-3.29,1.44,20.35,47.51,20.6,2
2201406,0.02,-1.01,0.03,1.87,-2.92,1.76,20.35,47.51,20.6,2
2201417,0.02,-1.01,0.03,1.5,-2.42,2.41,20.35,47.51,20.6,2
2201430,0.02,-1.01,0.03,0.52,-1.03,4.08,20.35,47.51,20.6,2
2201442,0.03,-1.0,0.03,0.11,-0.32,4.6,20.37,47.46,20.58,2
2201454,0.04,-1.0,0.04,-0.21,0.13,4.76,20.37,47.46,20.58,2
2201465,0.05,-1.0,0.04,-0.05,0.11,3.64,20.37,47.46,20.58,2
2201477,0.05,-1.0,0.04,0.56,-0.21,2.49,20.37,47.46,20.58,2
2201491,0.05,-1.0,0.04,2.4,-0.82,-0.37,20.54,47.44,20.54,2
2201501,0.04,-1.0,0.04,3.17,-0.87,-1.43,20.54,47.44,20.54,2
2201512,0.04,-1.0,0.04,3.6,-0.65,-1.76,20.54,47.44,20.54,2
2201526,0.03,-1.0,0.03,3.79,0.2,-1.35,20.54,47.44,20.54,2
2201536,0.03,-1.0,0.03,3.76,0.7,-1.4,20.54,47.44,20.54,2
2201547,0.04,-1.0,0.03,3.8,1.03,-1.81,20.65,47.43,20.59,2
2201557,0.04,-1.0,0.04,3.89,1.23,-2.28,20.65,47.43,20.59,2
2201569,0.03,-1.0,0.03,3.98,1.43,-2.55,20.65,47.43,20.59,2
2201579,0.03,-1.01,0.03,3.89,1.41,-2.43,20.65,47.43,20.59,2
2201590,0.03,-1.01,0.03,3.71,1.3,-2.29,20.65,47.39,20.49,2
2201603,0.03,-1.01,0.03,3.24,0.92,-1.92,20.65,47.39,20.49,2
2201615,0.02,-1.0,0.03,3.07,0.82,-1.7,20.65,47.39,20.49,2
2201625,0.02,-1.0,0.03,3.08,0.87,-1.57,20.65,47.39,20.49,2
2201636,0.02,-1.0,0.03,3.46,0.87,-1.76,20.65,47.39,20.49,2
2201647,0.03,-1.0,0.03,3.76,0.68,-1.95,20.65,47.43,20.46,2
2201659,0.03,-1.0,0.03,4.0,0.33,-2.06,20.65,47.43,20.46,2
2201670,0.02,-1.01,0.03,3.99,-0.64,-1.67,20.65,47.43,20.46,2
2201681,0.01,-1.01,0.02,3.65,-1.06,-0.94,20.65,47.43,20.46,2
2201692,0.01,-1.01,0.02,3.02,-1.3,0.24,20.52,47.4,20.35,2
2201706,0.01,-1.01,0.02,1.39,-1.12,3.09,20.52,47.4,20.35,2
2201716,0.01,-1.01,0.02,0.64,-0.91,4.14,20.52,47.4,20.35,2
2201727,0.02,-1.01,0.03,0.11,-0.75,5.06,20.52,47.4,20.35,2
2201742,0.02,-1.0,0.03,-0.15,-0.62,6.4,20.46,47.38,20.54,2
2201752,0.03,-1.0,0.03,-0.07,-0.57,6.85,20.46,47.38,20.54,2
2201763,0.02,-1.0,0.03,-0.09,-0.45,7.28,20.46,47.38,20.54,2
2201775,0.02,-1.01,0.02,-0.63,0.35,8.55,20.46,47.38,20.54,2
2201787,0.03,-1.01,0.02,-1.08,0.84,8.87,20.46,47.38,20.54,2
2201798,0.04,-1.01,0.03,-1.46,1.12,8.67,20.49,47.25,20.58,2
2201810,0.06,-1.0,0.04,-1.35,0.94,7.06,20.49,47.25,20.58,2
2201821,0.06,-1.0,0.04,-0.85,0.72,5.93,20.49,47.25,20.58,2
2201835,0.05,-1.0,0.04,0.37,0.64,4.14,20.49,47.25,20.58,2
2201846,0.04,-1.0,0.03,0.72,1.12,3.77,20.7,47.31,20.41,2
2201857,0.04,-1.0,0.03,0.91,1.93,3.69,20.7,47.31,20.41,2
2201869,0.04,-1.0,0.03,0.88,3.5,4.08,20.7,47.31,20.41,2
2201879,0.05,-1.0,0.04,1.0,4.54,4.01,20.7,47.31,20.41,2
2201890,0.05,-1.0,0.04,1.44,5.74,2.95,20.69,47.21,20.42,2
2201902,0.05,-1.01,0.04,2.01,6.28,1.9,20.69,47.21,20.42,2
2201913,0.06,-1.0,0.03,2.1,6.38,2.29,20.69,47.21,20.42,2
2201925,0.06,-1.0,0.03,2.2,6.25,2.33,20.69,47.21,20.42,2
2201939,0.06,-1.0,0.04,2.95,6.13,1.15,20.71,47.17,20.44,2
2201950,0.06,-1.0,0.04,3.56,5.82,0.17,20.71,47.17,20.44,2
2201964,0.07,-1.0,0.04,5.06,4.53,-2.33,20.71,47.17,20.44,2
2201976,0.06,-1.0,0.04,5.75,3.75,-3.17,20.71,47.17,20.44,2
2201989,0.05,-1.0,0.03,6.56,2.67,-3.32,20.73,47.1,20.35,2
2202001,0.04,-1.0,0.03,6.7,2.34,-3.07,20.73,47.1,20.35,2
2202011,0.04,-1.0,0.03,6.68,2.04,-2.85,20.73,47.1,20.35,2
2202021,0.04,-1.0,0.03,6.52,1.75,-2.49,20.73,47.1,20.35,2
2202033,0.03,-1.0,0.02,6.04,1.53,-1.59,20.73,47.1,20.35,2
2202044,0.03,-1.0,0.02,5.76,1.61,-1.05,20.67,47.04,20.44,2
2202055,0.03,-1.0,0.02,5.48,1.74,-0.52,20.67,47.04,20.44,2
2202067,0.04,-1.0,0.02,5.16,1.75,0.09,20.67,47.04,20.44,2
2202079,0.04,-1.0,0.02,5.19,1.73,0.38,20.67,47.04,20.44,2
2202089,0.04,-1.0,0.02,5.38,1.67,0.5,20.52,47.12,20.65,2
2202101,0.05,-1.0,0.02,6.09,1.11,0.3,20.52,47.12,20.65,2
2202113,0.05,-1.0,0.02,6.37,0.76,0.18,20.52,47.12,20.65,2
2202123,0.05,-1.01,0.01,6.56,0.41,0.04,20.52,47.12,20.65,2
2202136,0.04,-1.01,0.01,6.12,-0.1,-0.36,20.52,47.12,20.65,2
2202147,0.04,-1.01,0.0,5.36,-0.24,-0.48,20.44,47.15,20.8,2
2202160,0.04,-1.01,0.0,3.46,-0.5,-0.66,20.44,47.15,20.8,2
2202170,0.04,-1.01,0.01,2.61,-0.6,-0.65,20.44,47.15,20.8,2
2202182,0.04,-1.01,0.01,1.9,-0.82,-0.7,20.44,47.15,20.8,2
2202194,0.04,-1.01,0.01,1.01,-1.09,-0.47,20.4,47.09,20.99,2
2202205,0.04,-1.0,0.01,0.73,-0.87,-0.1,20.4,47.09,20.99,2
2202217,0.04,-1.0,0.01,0.65,-0.54,0.11,20.4,47.09,20.99,2
2202227,0.04,-1.0,0.01,0.82,-0.31,-0.02,20.4,47.09,20.99,2
2202240,0.06,-1.0,0.02,1.77,-0.65,-1.01,20.43,46.99,20.96,2
2202250,0.06,-1.0,0.02,2.34,-1.24,-1.75,20.43,46.99,20.96,2
2202260,0.05,-1.0,0.02,2.8,-1.8,-2.34,20.43,46.99,20.96,2
2202270,0.04,-1.0,0.01,3.13,-2.21,-2.51,20.43,46.99,20.96,2
2202282,0.03,-1.01,0.01,2.99,-2.59,-1.91,20.43,46.99,20.96,2
2202293,0.03,-1.01,0.01,2.51,-2.71,-1.12,20.45,46.92,20.96,2
2202303,0.03,-1.01,0.01,1.9,-2.87,-0.31,20.45,46.92,20.96,2
2202313,0.03,-1.01,0.01,1.33,-3.11,0.23,20.45,46.92,20.96,2
2202325,0.04,-1.01,0.01,0.47,-3.92,1.2,20.45,46.92,20.96,2
2202335,0.04,-1.01,0.01,0.08,-4.41,1.73,20.45,46.92,20.96,2
2202346,0.04,-1.01,0.01,-0.3,-4.92,2.02,20.34,46.83,21.2,2
2202356,0.03,-1.01,0.01,-0.75,-5.4,2.29,20.34,46.83,21.2,2
2202368,0.03,-1.01,0.01,-1.85,-6.13,3.48,20.34,46.83,21.2,2
2202378,0.03,-1.01,0.01,-2.38,-6.4,4.35,20.34,46.83,21.2,2
2202389,0.03,-1.01,0.01,-2.92,-6.63,5.33,20.51,46.84,21.38,2
2202399,0.03,-1.0,0.02,-3.39,-6.92,6.66,20.51,46.84,21.38,2
2202411,0.04,-1.0,0.02,-3.65,-6.64,9.09,20.51,46.84,21.38,2
2202421,0.05,-1.0,0.03,-3.17,-6.26,9.32,20.51,46.84,21.38,2
2202431,0.05,-1.0,0.03,-2.4,-5.96,9.09,20.51,46.84,21.38,2
2202442,0.06,-1.0,0.03,-1.71,-5.86,8.88,20.51,46.78,21.43,2
2202453,0.06,-1.0,0.03,-0.65,-5.28,8.22,20.51,46.78,21.43,2
2202465,0.06,-1.0,0.02,-0.37,-4.85,7.62,20.51,46.78,21.43,2
2202479,0.06,-1.0,0.02,-0.31,-3.95,6.05,20.51,46.78,21.43,2
2202490,0.06,-1.0,0.02,-0.58,-3.43,5.37,20.55,46.77,21.21,2
2202500,0.06,-1.0,0.02,-0.87,-2.77,4.73,20.55,46.77,21.21,2
2202510,0.06,-1.0,0.02,-1.05,-2.13,4.1,20.55,46.77,21.21,2
2202522,0.07,-1.0,0.03,-0.76,-1.08,2.77,20.55,46.77,21.21,2
2202532,0.06,-1.0,0.03,-0.33,-0.64,2.19,20.55,46.77,21.21,2
2202543,0.06,-1.0,0.03,0.14,-0.21,1.73,20.71,46.86,21.15,2
2202553,0.06,-1.0,0.03,0.58,0.2,1.32,20.71,46.86,21.15,2
2202563,0.06,-1.0,0.03,1.55,0.89,0.49,20.71,46.86,21.15,2
2202574,0.06,-1.0,0.03,2.01,1.15,0.23,20.71,46.86,21.15,2
2202585,0.06,-1.0,0.03,2.35,1.32,0.09,20.71,46.86,21.15,2
2202596,0.06,-1.0,0.03,2.54,1.46,0.03,20.91,46.87,21.17,2
2202608,0.06,-1.0,0.02,2.55,2.0,0.03,20.91,46.87,21.17,2
2202620,0.06,-1.0,0.03,2.5,2.27,-0.03,20.91,46.87,21.17,2
2202630,0.06,-1.0,0.03,2.57,2.43,-0.15,20.91,46.87,21.17,2
2202643,0.07,-1.0,0.03,3.05,2.41,-0.44,20.86,46.91,21.07,2
2202654,0.07,-1.0,0.03,3.37,2.29,-0.72,20.86,46.91,21.07,2
2202668,0.06,-1.0,0.02,3.79,2.03,-1.18,20.86,46.91,21.07,2
2202678,0.06,-1.0,0.02,3.79,1.77,-1.23,20.86,46.91,21.07,2
2202688,0.06,-1.0,0.02,3.72,1.46,-1.22,20.95,46.87,21.02,2
2202702,0.06,-1.0,0.02,3.48,0.69,-0.79,20.95,46.87,21.02,2
2202714,0.05,-1.0,0.02,3.24,0.32,-0.51,20.95,46.87,21.02,2
2202724,0.05,-1.0,0.02,2.97,0.01,-0.37,20.95,46.87,21.02,2
2202734,0.05,-1.01,0.02,2.62,-0.28,-0.15,20.95,46.87,21.02,2
2202747,0.06,-1.0,0.02,1.92,-0.82,0.8,20.9,46.91,21.13,2
2202758,0.06,-1.0,0.02,1.56,-1.1,1.1,20.9,46.91,21.13,2
2202771,0.06,-1.0,0.02,1.04,-1.72,1.33,20.9,46.91,21.13,2
2202783,0.06,-1.0,0.02,0.84,-1.85,1.52,20.9,46.91,21.13,2
2202795,0.06,-1.0,0.02,0.36,-1.92,1.93,20.92,46.99,20.84,2
2202806,0.07,-1.0,0.02,0.16,-1.86,1.99,20.92,46.99,20.84,2
2202817,0.07,-1.0,0.03,0.23,-1.83,1.73,20.92,46.99,20.84,2
2202831,0.07,-1.0,0.03,1.14,-1.78,0.53,20.92,46.99,20.84,2
2202842,0.07,-1.0,0.03,1.72,-1.56,0.1,20.95,47.0,20.8,2
2202853,0.06,-1.0,0.03,2.31,-1.22,-0.2,20.95,47.0,20.8,2
2202865,0.06,-1.0,0.03,3.3,-0.5,-0.81,20.95,47.0,20.8,2
2202876,0.07,-1.0,0.02,3.67,-0.31,-0.96,20.95,47.0,20.8,2
2202887,0.07,-1.0,0.02,3.95,-0.19,-1.13,21.0,47.02,20.97,2
2202897,0.06,-1.0,0.02,4.22,-0.13,-1.35,21.0,47.02,20.97,2
2202909,0.06,-1.0,0.02,4.56,-0.26,-1.91,21.0,47.02,20.97,2
2202920,0.06,-1.01,0.02,4.53,-0.46,-2.0,21.0,47.02,20.97,2
2202933,0.06,-1.0,0.02,4.37,-0.84,-1.97,21.0,47.02,20.97,2
2202945,0.06,-1.0,0.02,4.28,-1.15,-1.95,20.93,46.95,21.0,2
2202955,0.05,-1.0,0.01,4.13,-1.44,-1.86,20.93,46.95,21.0,2
2202965,0.05,-1.01,0.01,3.85,-1.66,-1.58,20.93,46.95,21.0,2
2202976,0.05,-1.01,0.01,2.95,-1.98,-0.42,20.93,46.95,21.0,2
2202988,0.05,-1.01,0.01,2.31,-2.02,0.28,20.97,46.99,21.17,2
2202999,0.05,-1.0,0.01,1.75,-2.1,0.8,20.97,46.99,21.17,2
2203010,0.06,-1.0,0.01,1.21,-2.41,1.33,20.97,46.99,21.17,2
2203021,0.06,-1.0,0.02,1.19,-2.53,1.61,20.97,46.99,21.17,2
2203032,0.05,-1.0,0.02,1.2,-2.65,1.82,20.97,46.99,21.17,2
2203044,0.05,-1.0,0.01,1.01,-2.55,2.45,20.77,46.97,21.66,2
2203055,0.06,-1.01,0.01,0.7,-2.32,2.83,20.77,46.97,21.66,2
2203067,0.06,-1.01,0.01,0.27,-2.16,3.1,20.77,46.97,21.66,2
2203077,0.06,-1.0,0.02,-0.11,-2.07,3.19,20.77,46.97,21.66,2
2203089,0.07,-1.0,0.02,-0.12,-1.96,2.38,20.75,46.91,21.87,2
2203101,0.07,-1.0,0.02,0.27,-1.96,1.68,20.75,46.91,21.87,2
2203115,0.07,-1.0,0.02,1.49,-1.71,0.48,20.75,46.91,21.87,2
2203125,0.07,-1.0,0.02,2.09,-1.55,-0.03,20.75,46.91,21.87,2
2203135,0.07,-1.0,0.02,2.56,-1.33,-0.39,20.75,46.91,21.87,2
2203146,0.07,-1.0,0.02,2.81,-1.22,-0.61,20.81,46.95,21.74,2
2203158,0.06,-1.0,0.02,2.81,-1.2,-0.91,20.81,46.95,21.74,2
2203168,0.06,-1.0,0.02,2.76,-1.25,-0.93,20.81,46.95,21.74,2
2203178,0.06,-1.0,0.02,2.71,-1.15,-0.84,20.81,46.95,21.74,2
2203189,0.06,-1.0,0.02,2.73,-0.99,-0.89,20.89,47.01,21.48,2
2203201,0.06,-1.0,0.02,2.97,-0.82,-1.16,20.89,47.01,21.48,2
2203211,0.06,-1.0,0.02,3.14,-0.68,-1.32,20.89,47.01,21.48,2
2203221,0.06,-1.0,0.02,3.39,-0.68,-1.48,20.89,47.01,21.48,2
2203231,0.06,-1.0,0.02,3.6,-0.82,-1.66,20.89,47.01,21.48,2
2203244,0.06,-1.01,0.01,3.71,-1.34,-1.98,20.91,47.02,21.55,2
2203254,0.05,-1.0,0.01,3.52,-1.46,-1.94,20.91,47.02,21.55,2
2203264,0.05,-1.0,0.01,3.12,-1.49,-1.66,20.91,47.02,21.55,2
2203274,0.05,-1.0,0.01,2.66,-1.46,-1.18,20.91,47.02,21.55,2
2203285,0.05,-1.0,0.01,1.86,-1.22,-0.06,20.91,47.02,21.55,2
2203297,0.05,-1.0,0.01,1.55,-1.06,0.25,20.83,46.9,21.6,2
2203307,0.05,-1.0,0.01,1.37,-0.9,0.3,20.83,46.9,21.6,2
2203317,0.06,-1.0,0.01,1.24,-0.88,0.4,20.83,46.9,21.6,2
2203328,0.06,-1.0,0.01,0.92,-1.1,0.78,20.83,46.9,21.6,2
2203340,0.06,-1.0,0.01,0.74,-1.21,0.97,20.81,46.89,21.41,2
2203351,0.06,-1.0,0.01,0.77,-1.25,0.99,20.81,46.89,21.41,2
2203362,0.06,-1.0,0.02,1.27,-1.11,0.39,20.81,46.89,21.41,2
2203373,0.06,-1.0,0.02,1.56,-1.13,0.26,20.81,46.89,21.41,2
2203385,0.06,-1.0,0.02,1.78,-1.15,0.27,20.81,46.89,21.41,2
2203398,0.05,-1.0,0.01,2.01,-0.92,0.47,20.81,46.89,21.38,2
2203408,0.06,-1.0,0.01,1.98,-0.74,0.46,20.81,46.89,21.38,2
2203418,0.06,-1.0,0.01,1.94,-0.67,0.53,20.81,46.89,21.38,2
2203428,0.06,-1.0,0.01,1.83,-0.65,0.62,20.81,46.89,21.38,2
2203440,0.06,-1.0,0.01,1.58,-0.63,0.93,20.93,46.98,21.39,2
2203452,0.06,-1.0,0.01,1.51,-0.6,0.95,20.93,46.98,21.39,2
2203465,0.06,-1.0,0.01,1.66,-0.7,0.76,20.93,46.98,21.39,2
2203476,0.06,-1.0,0.01,1.72,-0.78,0.67,20.93,46.98,21.39,2
2203486,0.06,-1.0,0.01,1.77,-0.83,0.66,20.94,46.97,21.38,2
2203499,0.06,-1.0,0.01,1.6,-0.88,0.77,20.94,46.97,21.38,2
2203510,0.06,-1.0,0.01,1.39,-0.86,0.81,20.94,46.97,21.38,2
2203521,0.06,-1.0,0.01,1.29,-0.79,0.76,20.94,46.97,21.38,2
2203534,0.06,-1.0,0.01,1.23,-0.67,0.63,20.94,46.97,21.38,2
2203546,0.06,-1.0,0.02,1.43,-0.54,0.35,20.99,46.95,21.48,2
2203556,0.06,-1.0,0.02,1.74,-0.39,-0.06,20.99,46.95,21.48,2
2203568,0.06,-1.0,0.02,2.25,-0.13,-0.28,20.99,46.95,21.48,2
2203579,0.06,-1.0,0.01,2.41,0.01,-0.18,20.99,46.95,21.48,2
2203590,0.06,-1.0,0.01,2.57,0.17,-0.17,20.96,46.93,21.63,2
2203604,0.06,-1.0,0.01,2.65,0.36,-0.2,20.96,46.93,21.63,2
2203615,0.06,-1.0,0.01,2.67,0.34,-0.19,20.96,46.93,21.63,2
2203627,0.06,-1.0,0.01,2.72,0.15,-0.29,20.96,46.93,21.63,2
2203640,0.06,-1.0,0.01,2.81,-0.48,-0.36,21.04,46.9,21.55,2
2203650,0.06,-1.0,0.01,2.84,-0.6,-0.15,21.04,46.9,21.55,2
2203660,0.06,-1.0,0.01,2.87,-0.59,-0.02,21.04,46.9,21.55,2
2203673,0.06,-1.01,0.01,2.81,-0.69,0.12,21.04,46.9,21.55,2
2203686,0.05,-1.01,0.01,2.58,-0.82,0.31,21.11,46.99,21.47,2
2203697,0.05,-1.01,0.01,1.96,-1.11,0.52,21.11,46.99,21.47,2
2203708,0.06,-1.01,0.01,1.61,-1.28,0.43,21.11,46.99,21.47,2
2203719,0.06,-1.01,0.01,1.27,-1.49,0.53,21.11,46.99,21.47,2
2203733,0.05,-1.0,0.01,0.62,-1.69,1.06,21.11,46.99,21.47,2
2203743,0.05,-1.0,0.01,0.35,-1.61,1.31,21.12,46.96,21.54,2
2203755,0.05,-1.0,0.01,0.19,-1.38,1.61,21.12,46.96,21.54,2
2203767,0.06,-1.0,0.01,0.06,-1.0,2.19,21.12,46.96,21.54,2
2203779,0.07,-1.0,0.02,0.25,-0.82,2.16,21.12,46.96,21.54,2
2203789,0.07,-1.0,0.02,0.51,-0.75,1.85,20.98,46.79,21.67,2
2203801,0.07,-1.0,0.02,1.21,-0.69,0.99,20.98,46.79,21.67,2
2203813,0.06,-1.0,0.02,1.52,-0.56,0.65,20.98,46.79,21.67,2
2203826,0.06,-1.0,0.01,1.94,-0.23,0.29,20.98,46.79,21.67,2
2203838,0.07,-1.0,0.01,2.03,-0.19,0.08,20.89,46.77,21.61,2
2203849,0.07,-1.0,0.01,2.12,-0.23,-0.27,20.89,46.77,21.61,2
2203861,0.06,-1.0,0.01,2.3,-0.52,-0.92,20.89,46.77,21.61,2
2203873,0.06,-1.0,0.01,2.44,-0.78,-1.19,20.89,46.77,21.61,2
2203886,0.06,-1.0,0.01,2.5,-1.06,-1.39,20.89,46.65,21.41,2
2203897,0.06,-1.0,0.01,2.45,-1.14,-1.21,20.89,46.65,21.41,2
2203907,0.06,-1.0,0.01,2.34,-1.14,-0.89,20.89,46.65,21.41,2
2203917,0.06,-1.0,0.01,2.23,-1.15,-0.48,20.89,46.65,21.41,2
2203930,0.06,-1.01,0.01,1.78,-1.34,0.18,20.89,46.65,21.41,2
2203941,0.06,-1.01,0.01,1.51,-1.49,0.53,20.89,46.55,21.72,2
2203953,0.06,-1.01,0.01,1.18,-1.59,0.94,20.89,46.55,21.72,2
2203965,0.06,-1.0,0.01,0.47,-1.56,1.6,20.89,46.55,21.72,2
2203976,0.06,-1.0,0.01,0.27,-1.54,1.54,20.89,46.55,21.72,2
2203987,0.06,-1.0,0.01,0.27,-1.56,1.32,20.8,46.5,21.73,2
2203999,0.06,-1.0,0.01,0.48,-1.61,1.04,20.8,46.5,21.73,2
2204011,0.06,-1.0,0.01,0.62,-1.62,0.69,20.8,46.5,21.73,2
2204021,0.06,-1.0,0.01,0.74,-1.63,0.46,20.8,46.5,21.73,2
2204031,0.06,-1.01,0.01,0.6,-1.36,0.82,20.8,46.5,21.73,2
2204043,0.06,-1.0,0.01,0.51,-1.14,1.06,20.91,46.58,21.79,2
2204055,0.06,-1.0,0.01,0.55,-0.92,1.16,20.91,46.58,21.79,2
2204065,0.06,-1.0,0.02,0.61,-0.74,1.18,20.91,46.58,21.79,2
2204077,0.07,-1.0,0.02,0.92,-0.78,0.78,20.91,46.58,21.79,2
2204088,0.07,-1.0,0.02,1.09,-0.84,0.63,20.85,46.63,21.71,2
2204098,0.06,-1.0,0.01,1.13,-0.92,0.57,20.85,46.63,21.71,2
2204108,0.06,-1.0,0.01,1.06,-0.97,0.56,20.85,46.63,21.71,2
2204119,0.06,-1.0,0.02,1.11,-1.11,0.34,20.85,46.63,21.71,2
2204131,0.06,-1.0,0.02,1.37,-1.19,0.25,20.85,46.63,21.71,2
2204142,0.06,-1.0,0.02,1.66,-1.26,0.23,20.81,46.7,21.57,2
2204154,0.06,-1.0,0.01,2.09,-1.31,0.19,20.81,46.7,21.57,2
2204164,0.06,-1.0,0.01,2.09,-1.26,0.28,20.81,46.7,21.57,2
2204175,0.06,-1.0,0.01,1.98,-1.21,0.39,20.81,46.7,21.57,2
2204188,0.07,-1.0,0.01,1.73,-1.51,0.24,20.79,46.64,21.57,2
2204200,0.06,-1.0,0.01,1.66,-1.69,0.2,20.79,46.64,21.57,2
2204210,0.06,-1.0,0.01,1.58,-1.74,0.25,20.79,46.64,21.57,2
2204221,0.06,-1.0,0.02,1.5,-1.73,0.46,20.79,46.64,21.57,2
2204231,0.06,-1.0,0.02,1.56,-1.71,0.34,20.79,46.64,21.57,2
2204242,0.06,-1.0,0.02,1.65,-1.7,0.19,20.76,46.7,21.76,2
2204255,0.06,-1.0,0.02,1.73,-1.56,0.13,20.76,46.7,21.76,2
2204266,0.06,-1.0,0.01,1.72,-1.51,0.18,20.76,46.7,21.76,2
2204276,0.06,-1.0,0.01,1.72,-1.53,0.28,20.76,46.7,21.76,2
2204287,0.07,-1.0,0.02,1.71,-1.59,0.35,20.82,46.77,21.67,2
2204300,0.07,-1.0,0.02,2.17,-1.91,-0.03,20.82,46.77,21.67,2
2204312,0.07,-1.0,0.02,2.53,-2.05,-0.38,20.82,46.77,21.67,2
2204322,0.06,-1.0,0.02,2.86,-2.21,-0.65,20.82,46.77,21.67,2
2204335,0.06,-1.0,0.01,3.1,-2.33,-0.86,20.89,46.8,21.8,2
2204345,0.06,-1.01,0.01,2.85,-2.33,-0.68,20.89,46.8,21.8,2
2204355,0.06,-1.01,0.01,2.41,-2.26,-0.35,20.89,46.8,21.8,2
2204365,0.06,-1.01,0.01,1.97,-2.17,0.03,20.89,46.8,21.8,2
2204376,0.06,-1.0,0.01,1.13,-1.99,0.6,20.89,46.8,21.8,2
2204388,0.06,-1.0,0.01,0.98,-1.84,0.85,21.07,46.87,21.64,2
2204398,0.06,-1.0,0.02,1.03,-1.75,0.89,21.07,46.87,21.64,2
2204408,0.07,-1.0,0.02,1.29,-1.72,0.67,21.07,46.87,21.64,2
2204419,0.06,-1.0,0.02,1.99,-1.78,0.08,21.07,46.87,21.64,2
2204431,0.06,-1.0,0.02,2.32,-1.67,0.01,21.07,46.87,21.64,2
2204442,0.06,-1.0,0.01,2.55,-1.56,-0.1,21.13,46.86,21.57,2
2204453,0.06,-1.0,0.01,2.56,-1.57,-0.16,21.13,46.86,21.57,2
2204464,0.06,-1.0,0.01,2.48,-1.6,-0.13,21.13,46.86,21.57,2
2204474,0.06,-1.0,0.01,2.35,-1.58,-0.04,21.13,46.86,21.57,2
2204485,0.06,-1.0,0.01,2.22,-1.56,0.11,21.16,46.99,21.46,2
2204496,0.06,-1.0,0.01,1.99,-1.7,0.21,21.16,46.99,21.46,2
2204507,0.07,-1.0,0.01,1.95,-1.84,0.08,21.16,46.99,21.46,2
2204518,0.06,-1.0,0.01,2.08,-2.04,-0.11,21.16,46.99,21.46,2
2204532,0.06,-1.0,0.01,2.36,-2.15,-0.25,21.16,46.99,21.46,2
2204543,0.06,-1.0,0.01,2.4,-2.08,-0.15,21.17,46.9,21.49,2
2204555,0.05,-1.0,0.01,2.09,-1.77,0.76,21.17,46.9,21.49,2
2204566,0.06,-1.0,0.01,1.87,-1.72,1.5,21.17,46.9,21.49,2
2204578,0.06,-1.0,0.01,1.73,-1.57,1.91,21.17,46.9,21.49,2
2204590,0.06,-1.0,0.01,2.01,-1.21,1.26,21.16,46.87,21.51,2
2204601,0.07,-1.0,0.01,2.21,-1.14,0.82,21.16,46.87,21.51,2
2204611,0.07,-1.0,0.01,2.4,-1.13,0.46,21.16,46.87,21.51,2
2204621,0.07,-1.0,0.01,2.62,-1.19,0.16,21.16,46.87,21.51,2
2204631,0.06,-1.0,0.01,2.83,-1.21,-0.16,21.16,46.87,21.51,2
2204644,0.06,-1.0,0.01,2.98,-1.11,-0.51,21.1,46.78,21.6,2
2204654,0.06,-1.0,0.01,2.92,-1.01,-0.53,21.1,46.78,21.6,2
2204664,0.06,-1.0,0.01,2.82,-0.98,-0.43,21.1,46.78,21.6,2
2204674,0.06,-1.0,0.01,2.7,-1.02,-0.13,21.1,46.78,21.6,2
2204686,0.06,-1.0,0.01,2.32,-0.99,0.55,20.92,46.84,21.71,2
2204698,0.06,-1.0,0.01,2.24,-1.0,0.82,20.92,46.84,21.71,2
2204712,0.06,-1.0,0.01,2.19,-1.03,1.06,20.92,46.84,21.71,2
2204722,0.07,-1.0,0.01,2.32,-1.11,1.03,20.92,46.84,21.71,2
2204732,0.06,-1.0,0.01,2.4,-1.3,0.91,20.92,46.84,21.71,2
2204742,0.06,-1.0,0.01,2.44,-1.6,0.99,20.96,46.89,21.68,2
2204753,0.06,-1.0,0.01,2.15,-1.96,1.74,20.96,46.89,21.68,2
2204764,0.06,-1.0,0.01,1.86,-1.89,2.0,20.96,46.89,21.68,2
2204776,0.06,-1.0,0.01,1.57,-1.75,2.03,20.96,46.89,21.68,2
2204787,0.06,-1.0,0.01,1.26,-1.68,2.05,21.02,46.79,21.74,2
2204798,0.07,-1.0,0.01,1.28,-1.74,1.96,21.02,46.79,21.74,2
2204810,0.07,-1.0,0.01,1.42,-1.75,1.86,21.02,46.79,21.74,2
2204820,0.07,-1.0,0.01,1.59,-1.71,1.71,21.02,46.79,21.74,2
2204832,0.07,-1.0,0.01,1.78,-1.38,1.51,21.02,46.79,21.74,2
2204842,0.07,-1.0,0.01,1.67,-1.21,1.58,21.09,46.76,21.95,2
2204854,0.07,-1.0,0.01,1.45,-1.06,1.66,21.09,46.76,21.95,2
2204866,0.07,-1.0,0.01,1.11,-0.78,1.42,21.09,46.76,21.95,2
2204878,0.07,-1.0,0.01,1.07,-0.8,1.16,21.09,46.76,21.95,2
2204889,0.07,-1.0,0.01,1.13,-0.9,0.93,21.24,46.76,21.92,2
2204900,0.07,-1.0,0.01,1.52,-0.93,0.52,21.24,46.76,21.92,2
2204912,0.07,-1.0,0.01,1.71,-0.85,0.4,21.24,46.76,21.92,2
2204923,0.07,-1.0,0.01,1.91,-0.73,0.29,21.24,46.76,21.92,2
2204936,0.07,-1.0,0.01,2.16,-0.63,-0.08,21.22,46.75,21.71,2
2204948,0.07,-1.0,0.01,2.09,-0.69,-0.09,21.22,46.75,21.71,2
2204959,0.07,-1.0,0.01,1.75,-0.71,0.12,21.22,46.75,21.71,2
2204970,0.07,-1.0,0.01,1.63,-0.69,0.18,21.22,46.75,21.71,2
2204982,0.07,-1.0,0.01,1.6,-0.7,-0.02,21.22,46.75,21.71,2
2204994,0.07,-1.0,0.01,1.76,-0.75,-0.28,21.25,46.7,21.73,2
2205005,0.07,-1.0,0.01,1.87,-0.76,-0.3,21.25,46.7,21.73,2
2205016,0.07,-1.0,0.01,2.05,-0.78,-0.41,21.25,46.7,21.73,2
2205030,0.07,-1.0,0.01,2.26,-0.78,-0.3,21.25,46.7,21.73,2
2205041,0.07,-1.0,0.01,2.31,-0.75,-0.17,21.36,46.71,21.71,2
2205053,0.07,-1.0,0.01,2.37,-0.74,-0.22,21.36,46.71,21.71,2
2205064,0.07,-1.0,0.01,2.27,-0.79,-0.05,21.36,46.71,21.71,2
2205076,0.07,-1.0,0.01,2.1,-0.96,0.14,21.36,46.71,21.71,2
2205088,0.07,-1.0,0.01,1.72,-1.16,0.29,21.37,46.75,21.65,2
2205099,0.06,-1.0,0.01,1.45,-1.22,0.51,21.37,46.75,21.65,2
2205110,0.06,-1.0,0.01,1.25,-1.25,0.73,21.37,46.75,21.65,2
2205124,0.07,-1.0,0.01,1.5,-1.33,0.61,21.37,46.75,21.65,2
2205135,0.07,-1.0,0.01,1.72,-1.48,0.44,21.32,46.79,21.59,2
2205146,0.07,-1.0,0.01,1.92,-1.67,0.27,21.32,46.79,21.59,2
2205158,0.06,-1.0,0.01,2.11,-1.64,0.1,21.32,46.79,21.59,2
2205168,0.06,-1.0,0.01,2.02,-1.49,0.35,21.32,46.79,21.59,2
2205178,0.07,-1.0,0.01,1.79,-1.31,0.62,21.32,46.79,21.59,2
2205189,0.07,-1.0,0.01,1.59,-1.12,0.82,21.32,46.86,21.58,2
2205199,0.07,-1.0,0.01,1.57,-0.68,0.71,21.32,46.86,21.58,2
2205210,0.07,-1.0,0.01,1.78,-0.52,0.49,21.32,46.86,21.58,2
2205222,0.07,-1.0,0.01,2.07,-0.4,0.2,21.32,46.86,21.58,2
2205233,0.07,-1.0,0.01,2.38,-0.29,-0.04,21.33,46.78,21.49,2
2205244,0.07,-1.0,0.01,2.69,-0.12,-0.32,21.33,46.78,21.49,2
2205255,0.07,-1.0,0.01,2.93,0.02,-0.62,21.33,46.78,21.49,2
2205267,0.07,-1.0,0.01,3.09,0.16,-0.84,21.33,46.78,21.49,2
2205279,0.07,-1.0,0.0,3.25,0.24,-0.99,21.33,46.78,21.49,2
2205290,0.07,-1.0,0.0,3.18,0.21,-1.0,21.45,46.74,21.6,2
2205300,0.07,-1.0,0.0,3.1,0.15,-0.97,21.45,46.74,21.6,2
2205310,0.07,-1.0,0.0,2.96,0.13,-0.82,21.45,46.74,21.6,2
2205322,0.07,-1.0,0.0,2.85,0.04,-0.62,21.45,46.74,21.6,2
2205332,0.07,-1.0,0.0,2.87,-0.16,-0.6,21.45,46.74,21.6,2
2205343,0.07,-1.0,0.0,2.89,-0.37,-0.62,21.44,46.66,21.54,2
2205353,0.06,-1.0,0.0,2.91,-0.58,-0.67,21.44,46.66,21.54,2
2205365,0.06,-1.0,0.0,2.8,-0.87,-0.37,21.44,46.66,21.54,2
2205375,0.06,-1.01,-0.0,2.47,-1.0,0.09,21.44,46.66,21.54,2
2205386,0.06,-1.0,-0.0,2.0,-1.08,0.63,21.29,46.72,21.53,2
2205397,0.06,-1.0,-0.0,0.88,-1.02,1.78,21.29,46.72,21.53,2
2205408,0.06,-1.01,0.0,0.38,-0.96,2.26,21.29,46.72,21.53,2
2205418,0.07,-1.0,0.0,-0.06,-1.03,2.54,21.29,46.72,21.53,2
2205429,0.07,-1.0,0.0,-0.31,-1.19,2.59,21.29,46.72,21.53,2
2205442,0.07,-1.0,0.01,-0.32,-1.47,2.52,21.27,46.58,21.62,2
2205454,0.07,-1.0,0.01,-0.26,-1.47,2.64,21.27,46.58,21.62,2
2205467,0.07,-1.0,0.01,-0.09,-1.53,3.19,21.27,46.58,21.62,2
2205479,0.08,-1.0,0.01,0.09,-1.6,3.43,21.27,46.58,21.62,2
2205490,0.08,-1.0,0.01,0.33,-1.57,3.2,21.27,46.7,21.7,2
2205501,0.08,-1.0,0.01,0.82,-1.39,1.78,21.27,46.7,21.7,2
2205513,0.08,-1.0,0.01,0.85,-1.37,1.48,21.27,46.7,21.7,2
2205523,0.07,-1.0,0.01,0.84,-1.26,1.36,21.27,46.7,21.7,2
2205534,0.07,-1.0,0.01,0.87,-1.11,1.15,21.27,46.69,21.74,2
2205544,0.07,-1.0,0.01,0.93,-0.95,0.87,21.27,46.69,21.74,2
2205556,0.07,-1.0,0.01,1.02,-0.86,0.67,21.27,46.69,21.74,2
2205569,0.08,-1.0,0.01,1.43,-0.87,0.15,21.27,46.69,21.74,2
2205579,0.08,-1.0,0.01,1.71,-0.92,-0.14,21.27,46.69,21.74,2
2205591,0.07,-1.0,0.01,1.94,-0.93,-0.29,21.26,46.68,21.76,2
2205601,0.07,-1.0,0.01,2.13,-0.86,-0.3,21.26,46.68,21.76,2
2205612,0.07,-1.0,0.01,2.29,-0.61,-0.34,21.26,46.68,21.76,2
2205623,0.07,-1.0,0.01,2.34,-0.56,-0.51,21.26,46.68,21.76,2
2205634,0.07,-1.0,0.01,2.4,-0.49,-0.63,21.37,46.6,21.67,2
2205644,0.07,-1.0,0.01,2.37,-0.42,-0.66,21.37,46.6,21.67,2
2205654,0.07,-1.0,0.0,2.15,-0.03,-0.45,21.37,46.6,21.67,2
2205665,0.07,-1.0,0.01,2.07,0.13,-0.33,21.37,46.6,21.67,2
2205676,0.07,-1.0,0.01,2.07,0.18,-0.44,21.37,46.6,21.67,2
2205686,0.07,-1.0,0.01,2.18,0.21,-0.71,21.37,46.51,21.66,2
2205700,0.07,-1.0,0.01,2.32,0.18,-0.66,21.37,46.51,21.66,2
2205711,0.07,-1.0,0.0,2.31,0.15,-0.32,21.37,46.51,21.66,2
2205725,0.07,-1.0,0.0,2.23,0.08,0.47,21.37,46.51,21.66,2
2205736,0.07,-1.0,0.0,2.21,0.02,0.81,21.31,46.53,21.46,2
2205747,0.07,-1.0,0.0,2.22,-0.09,1.02,21.31,46.53,21.46,2
2205758,0.07,-1.0,0.01,2.3,-0.52,0.76,21.31,46.53,21.46,2
2205769,0.07,-1.0,0.0,2.32,-0.7,0.6,21.31,46.53,21.46,2
2205779,0.07,-1.0,0.0,2.2,-0.86,0.75,21.31,46.53,21.46,2
2205790,0.07,-1.0,0.0,1.91,-1.02,0.96,21.4,46.47,21.6,2
2205800,0.07,-1.0,0.0,1.5,-1.2,0.79,21.4,46.47,21.6,2
2205811,0.07,-1.0,0.0,1.41,-1.27,0.71,21.4,46.47,21.6,2
2205823,0.07,-1.0,0.0,1.3,-1.33,0.81,21.4,46.47,21.6,2
2205834,0.07,-1.0,0.0,1.22,-1.29,1.03,21.46,46.42,21.64,2
2205846,0.07,-1.0,0.0,0.9,-1.15,1.61,21.46,46.42,21.64,2
2205856,0.08,-1.0,0.0,0.72,-1.15,1.72,21.46,46.42,21.64,2
2205866,0.08,-1.0,0.01,0.65,-1.26,1.68,21.46,46.42,21.64,2
2205876,0.08,-1.0,0.01,0.73,-1.35,1.3,21.46,46.42,21.64,2
2205889,0.08,-1.0,0.01,1.04,-1.39,0.58,21.46,46.43,21.8,2
2205900,0.07,-1.0,0.01,1.09,-1.3,0.46,21.46,46.43,21.8,2
2205914,0.08,-1.0,0.01,1.18,-1.09,0.06,21.46,46.43,21.8,2
2205924,0.08,-1.0,0.01,1.27,-1.14,-0.22,21.46,46.43,21.8,2
2205935,0.08,-1.0,0.01,1.45,-1.15,-0.52,21.5,46.35,21.91,2
2205945,0.07,-1.0,0.01,1.63,-1.19,-0.7,21.5,46.35,21.91,2
2205957,0.07,-1.0,0.0,1.68,-0.99,-0.51,21.5,46.35,21.91,2
2205967,0.07,-1.0,0.0,1.55,-0.78,-0.29,21.5,46.35,21.91,2
2205978,0.07,-1.0,0.01,1.43,-0.69,-0.13,21.5,46.35,21.91,2
2205991,0.08,-1.0,0.01,1.45,-0.9,-0.33,21.56,46.37,21.95,2
2206003,0.08,-1.0,0.01,1.64,-1.04,-0.54,21.56,46.37,21.95,2
2206015,0.07,-1.0,0.01,2.0,-1.11,-0.56,21.56,46.37,21.95,2
2206026,0.07,-1.0,0.0,1.95,-1.0,-0.26,21.56,46.37,21.95,2
2206037,0.07,-1.0,0.0,1.79,-0.91,0.01,21.57,46.32,21.97,2
2206051,0.07,-1.0,0.01,1.46,-0.96,-0.0,21.57,46.32,21.97,2
2206062,0.07,-1.0,0.01,1.49,-0.99,-0.11,21.57,46.32,21.97,2
2206074,0.07,-1.0,0.01,1.6,-1.0,-0.19,21.57,46.32,21.97,2
2206087,0.07,-1.0,0.01,1.83,-1.0,-0.2,21.58,46.38,21.76,2
2206099,0.07,-1.0,0.0,1.82,-1.0,-0.14,21.58,46.38,21.76,2
2206110,0.07,-1.0,0.0,1.51,-0.98,0.42,21.58,46.38,21.76,2
2206121,0.07,-1.0,0.01,1.36,-1.03,0.66,21.58,46.38,21.76,2
2206131,0.08,-1.0,0.01,1.38,-1.07,0.5,21.67,46.55,21.8,2
2206144,0.08,-1.0,0.01,1.85,-1.22,-0.24,21.67,46.55,21.8,2
2206155,0.07,-1.0,0.01,1.94,-1.29,-0.25,21.67,46.55,21.8,2
2206166,0.07,-1.0,0.01,2.01,-1.35,-0.24,21.67,46.55,21.8,2
2206180,0.07,-1.0,0.0,1.96,-1.58,-0.38,21.67,46.55,21.8,2
2206191,0.07,-1.0,0.0,1.85,-1.65,-0.23,21.61,46.45,21.76,2
2206201,0.07,-1.0,0.0,1.68,-1.6,0.05,21.61,46.45,21.76,2
2206211,0.07,-1.0,0.0,1.5,-1.53,0.35,21.61,46.45,21.76,2
2206221,0.07,-1.0,0.01,1.35,-1.72,0.25,21.61,46.45,21.76,2
2206233,0.07,-1.0,0.01,1.43,-1.93,0.02,21.65,46.4,21.95,2
2206245,0.07,-1.0,0.01,1.49,-2.02,0.09,21.65,46.4,21.95,2
2206256,0.07,-1.0,0.01,1.42,-1.9,0.51,21.65,46.4,21.95,2
2206267,0.07,-1.0,0.01,1.47,-1.85,0.22,21.65,46.4,21.95,2
2206277,0.08,-1.0,0.01,1.66,-1.86,-0.22,21.65,46.4,21.95,2
2206288,0.07,-1.0,0.01,1.84,-1.91,-0.41,21.76,46.29,21.84,2
2206299,0.07,-1.0,0.01,1.84,-1.66,-0.18,21.76,46.29,21.84,2
2206310,0.07,-1.01,0.0,1.61,-1.4,0.08,21.76,46.29,21.84,2
2206320,0.07,-1.0,0.0,1.32,-1.17,0.28,21.76,46.29,21.84,2
2206330,0.07,-1.0,0.01,1.11,-1.01,0.35,21.76,46.29,21.84,2
2206342,0.07,-1.0,0.01,1.27,-0.75,0.34,21.77,46.23,21.97,2
2206352,0.08,-1.0,0.01,1.58,-0.7,0.01,21.77,46.23,21.97,2
2206364,0.08,-1.0,0.01,2.06,-0.72,-0.5,21.77,46.23,21.97,2
2206378,0.07,-1.0,0.01,2.78,-0.68,-1.05,21.77,46.23,21.97,2
2206389,0.07,-1.0,0.0,2.83,-0.6,-0.98,21.63,46.24,22.05,2
2206399,0.07,-1.01,0.0,2.65,-0.51,-0.89,21.63,46.24,22.05,2
2206409,0.07,-1.0,0.0,2.4,-0.45,-0.76,21.63,46.24,22.05,2
2206421,0.07,-1.0,0.0,1.99,-0.3,-0.34,21.63,46.24,22.05,2
2206432,0.07,-1.0,0.01,1.97,-0.29,-0.24,21.58,46.25,22.17,2
2206443,0.07,-1.0,0.01,2.13,-0.21,-0.31,21.58,46.25,22.17,2
2206455,0.07,-1.0,0.01,2.67,-0.26,-0.49,21.58,46.25,22.17,2
2206467,0.07,-1.0,0.01,2.91,-0.39,-0.57,21.58,46.25,22.17,2
2206482,0.07,-1.0,0.0,3.16,-0.61,-0.8,21.6,46.26,22.08,2
2206492,0.07,-1.0,0.0,3.19,-0.66,-0.94,21.6,46.26,22.08,2
2206502,0.07,-1.0,0.0,3.17,-0.69,-0.97,21.6,46.26,22.08,2
2206512,0.07,-1.0,0.0,3.12,-0.69,-0.82,21.6,46.26,22.08,2
2206524,0.07,-1.0,0.0,2.92,-0.58,-0.22,21.6,46.26,22.08,2
2206535,0.07,-1.0,0.0,2.83,-0.55,-0.01,21.57,46.36,22.14,2
2206545,0.07,-1.0,0.0,2.67,-0.51,0.29,21.57,46.36,22.14,2
2206555,0.07,-1.0,0.0,2.45,-0.55,0.52,21.57,46.36,22.14,2
2206567,0.07,-1.0,0.0,2.12,-0.64,0.74,21.57,46.36,22.14,2
2206577,0.07,-1.0,0.0,2.01,-0.71,0.77,21.57,46.36,22.14,2
2206588,0.07,-1.0,0.0,1.93,-0.73,0.83,21.62,46.4,21.99,2
2206598,0.07,-1.0,0.0,1.91,-0.7,0.87,21.62,46.4,21.99,2
2206609,0.07,-1.0,0.0,1.88,-0.52,0.76,21.62,46.4,21.99,2
2206621,0.07,-1.0,0.0,1.87,-0.48,0.7,21.62,46.4,21.99,2
2206632,0.07,-1.0,0.0,1.83,-0.47,0.69,21.57,46.43,22.01,2
2206644,0.07,-1.0,0.0,1.86,-0.4,0.62,21.57,46.43,22.01,2
2206654,0.07,-1.0,0.0,1.88,-0.37,0.49,21.57,46.43,22.01,2
2206664,0.07,-1.0,0.0,1.94,-0.42,0.45,21.57,46.43,22.01,2
2206674,0.07,-1.0,0.0,2.01,-0.48,0.47,21.57,46.43,22.01,2
2206687,0.07,-1.0,0.0,2.15,-0.52,0.36,21.56,46.39,22.08,2
2206698,0.07,-1.0,0.0,2.24,-0.54,0.16,21.56,46.39,22.08,2
2206711,0.07,-1.0,0.0,2.43,-0.46,-0.31,21.56,46.39,22.08,2
2206722,0.07,-1.0,0.0,2.49,-0.46,-0.43,21.56,46.39,22.08,2
2206733,0.07,-1.0,-0.0,2.52,-0.46,-0.47,21.58,46.38,22.09,2
2206745,0.07,-1.0,-0.0,2.45,-0.48,-0.61,21.58,46.38,22.09,2
2206757,0.07,-1.0,0.0,2.39,-0.51,-0.62,21.58,46.38,22.09,2
2206767,0.07,-1.0,0.0,2.42,-0.48,-0.62,21.58,46.38,22.09,2
2206777,0.07,-1.0,0.0,2.53,-0.44,-0.7,21.58,46.38,22.09,2
2206790,0.07,-1.0,-0.0,2.68,-0.31,-0.71,21.58,46.45,21.82,2
2206801,0.07,-1.0,-0.0,2.5,-0.35,-0.66,21.58,46.45,21.82,2
2206814,0.07,-1.0,-0.0,2.43,-0.52,-0.82,21.58,46.45,21.82,2
2206825,0.07,-1.0,-0.0,2.52,-0.62,-0.96,21.58,46.45,21.82,2
2206836,0.07,-1.0,-0.0,2.69,-0.69,-1.1,21.55,46.34,22.0,2
2206850,0.07,-1.0,-0.0,2.91,-0.71,-1.09,21.55,46.34,22.0,2
2206861,0.07,-1.0,-0.0,2.86,-0.73,-0.93,21.55,46.34,22.0,2
2206874,0.07,-1.0,-0.0,2.54,-0.88,-0.54,21.55,46.34,22.0,2
2206886,0.07,-1.0,-0.0,2.43,-1.06,-0.54,21.48,46.32,22.28,2
2206898,0.07,-1.0,-0.0,2.46,-1.3,-0.72,21.48,46.32,22.28,2
2206910,0.07,-1.0,-0.0,2.64,-1.63,-0.97,21.48,46.32,22.28,2
2206921,0.06,-1.0,-0.0,2.74,-1.69,-0.9,21.48,46.32,22.28,2
2206933,0.06,-1.0,-0.0,2.68,-1.79,-0.69,21.47,46.27,22.24,2
2206945,0.06,-1.0,-0.01,2.22,-1.82,-0.0,21.47,46.27,22.24,2
2206956,0.07,-1.0,-0.0,1.93,-1.82,0.16,21.47,46.27,22.24,2
2206970,0.07,-1.0,-0.0,1.72,-2.03,0.18,21.47,46.27,22.24,2
2206981,0.06,-1.0,-0.0,1.73,-2.07,0.22,21.53,46.3,22.14,2
2206993,0.06,-1.0,-0.0,1.73,-1.97,0.32,21.53,46.3,22.14,2
2207005,0.07,-1.0,-0.0,1.71,-1.71,0.13,21.53,46.3,22.14,2
2207016,0.07,-1.0,-0.0,1.79,-1.59,-0.07,21.53,46.3,22.14,2
2207031,0.07,-1.0,-0.0,2.08,-1.52,-0.59,21.46,46.29,22.1,2
2207043,0.07,-1.0,-0.0,2.09,-1.52,-0.62,21.46,46.29,22.1,2
2207056,0.07,-1.0,-0.0,1.91,-1.38,-0.57,21.46,46.29,22.1,2
2207068,0.07,-1.0,-0.0,1.86,-1.29,-0.54,21.46,46.29,22.1,2
2207083,0.06,-1.0,-0.0,1.97,-1.06,-0.63,21.46,46.2,22.28,2
2207094,0.06,-1.0,-0.0,2.26,-0.96,-0.77,21.46,46.2,22.28,2
2207108,0.07,-1.0,-0.0,2.81,-0.95,-0.98,21.46,46.2,22.28,2
2207120,0.07,-1.0,-0.0,3.01,-0.94,-1.21,21.46,46.2,22.28,2
2207131,0.07,-1.0,-0.0,3.14,-1.02,-1.29,21.35,46.26,22.07,2
2207142,0.06,-1.01,-0.01,3.12,-1.03,-1.29,21.35,46.26,22.07,2
2207154,0.06,-1.01,-0.01,2.98,-0.99,-1.17,21.35,46.26,22.07,2
2207164,0.06,-1.01,-0.01,2.72,-1.03,-0.95,21.35,46.26,22.07,2
2207175,0.06,-1.0,-0.0,2.38,-0.96,-0.31,21.35,46.26,22.07,2
2207187,0.06,-1.0,-0.0,2.49,-0.91,-0.21,21.28,46.26,22.0,2
2207197,0.06,-1.0,-0.0,2.68,-0.85,-0.23,21.28,46.26,22.0,2
2207207,0.07,-1.0,-0.0,2.83,-0.81,-0.32,21.28,46.26,22.0,2
2207218,0.06,-1.0,-0.01,3.1,-0.88,-0.35,21.28,46.26,22.0,2
2207230,0.06,-1.0,-0.01,3.07,-0.97,-0.31,21.38,46.21,22.03,2
2207242,0.06,-1.0,-0.01,2.98,-0.96,-0.11,21.38,46.21,22.03,2
2207254,0.06,-1.0,-0.01,2.86,-0.77,0.2,21.38,46.21,22.03,2
2207264,0.06,-1.0,-0.01,2.86,-0.77,0.18,21.38,46.21,22.03,2
2207274,0.06,-1.0,-0.01,2.86,-0.93,0.09,21.38,46.21,22.03,2
2207285,0.06,-1.0,-0.01,2.86,-1.1,0.08,21.29,46.19,22.07,2
2207297,0.06,-1.0,-0.01,2.71,-1.28,0.13,21.29,46.19,22.07,2
2207308,0.06,-1.0,-0.01,2.55,-1.17,0.25,21.29,46.19,22.07,2
2207321,0.06,-1.0,-0.01,2.28,-0.96,0.39,21.29,46.19,22.07,2
2207333,0.06,-1.0,-0.01,2.13,-0.91,0.5,21.34,46.14,22.16,2
2207344,0.06,-1.0,-0.01,1.98,-0.83,0.67,21.34,46.14,22.16,2
2207356,0.06,-1.0,-0.01,2.0,-0.44,0.81,21.34,46.14,22.16,2
2207368,0.06,-1.0,-0.01,2.05,-0.3,0.9,21.34,46.14,22.16,2
2207381,0.07,-1.0,-0.01,2.34,-0.1,0.75,21.32,46.3,22.42,2
2207393,0.07,-1.0,-0.01,2.53,-0.05,0.57,21.32,46.3,22.42,2
2207405,0.06,-1.0,-0.01,2.56,-0.01,0.43,21.32,46.3,22.42,2
2207417,0.07,-1.0,-0.01,2.66,-0.08,0.31,21.32,46.3,22.42,2
2207429,0.07,-1.0,-0.01,2.72,-0.18,0.24,21.2,46.35,22.47,2
2207443,0.07,-1.0,-0.01,2.98,-0.32,-0.29,21.2,46.35,22.47,2
2207455,0.07,-1.0,-0.01,3.17,-0.41,-0.57,21.2,46.35,22.47,2
2207468,0.06,-1.0,-0.01,3.36,-0.64,-0.8,21.2,46.35,22.47,2
2207480,0.06,-1.0,-0.01,3.4,-0.73,-0.78,21.05,46.4,22.6,2
2207492,0.06,-1.0,-0.01,3.19,-0.74,-0.36,21.05,46.4,22.6,2
2207504,0.06,-1.0,-0.01,3.12,-0.78,-0.34,21.05,46.4,22.6,2
2207514,0.06,-1.0,-0.01,3.13,-0.82,-0.45,21.05,46.4,22.6,2
2207526,0.06,-1.0,-0.01,3.31,-1.08,-0.77,21.05,46.4,22.6,2
2207539,0.06,-1.0,-0.01,3.47,-1.15,-0.8,20.95,46.4,22.67,2
2207550,0.06,-1.0,-0.01,3.56,-1.14,-0.65,20.95,46.4,22.67,2
2207562,0.06,-1.0,-0.02,3.39,-1.03,-0.05,20.95,46.4,22.67,2
2207574,0.06,-1.0,-0.02,3.16,-1.06,0.16,20.95,46.4,22.67,2
2207585,0.06,-1.0,-0.02,2.9,-1.07,0.25,20.86,46.42,22.78,2
2207597,0.06,-1.0,-0.02,2.52,-1.05,0.39,20.86,46.42,22.78,2
2207608,0.06,-1.0,-0.01,2.46,-0.98,0.41,20.86,46.42,22.78,2
2207619,0.06,-1.0,-0.01,2.55,-0.9,0.36,20.86,46.42,22.78,2
2207631,0.06,-1.0,-0.01,2.75,-0.83,0.18,20.79,46.43,23.15,2
2207642,0.06,-1.0,-0.02,2.83,-0.93,0.16,20.79,46.43,23.15,2
2207654,0.06,-1.0,-0.02,2.82,-1.03,0.17,20.79,46.43,23.15,2
2207666,0.06,-1.0,-0.02,2.82,-1.09,0.29,20.79,46.43,23.15,2
2207677,0.06,-1.0,-0.02,2.79,-1.04,0.39,20.79,46.43,23.15,2
2207688,0.06,-1.0,-0.02,2.79,-1.01,0.48,20.79,46.34,23.2,2
2207701,0.07,-1.0,-0.02,2.95,-1.09,-0.06,20.79,46.34,23.2,2
2207712,0.06,-1.0,-0.02,3.1,-1.25,-0.34,20.79,46.34,23.2,2
2207726,0.06,-1.0,-0.02,3.27,-1.48,-0.39,20.79,46.34,23.2,2
2207737,0.06,-1.0,-0.02,3.32,-1.34,-0.27,20.8,46.24,23.08,2
2207750,0.06,-1.0,-0.02,3.37,-1.14,-0.14,20.8,46.24,23.08,2
2207761,0.07,-1.0,-0.02,3.42,-1.32,-0.01,20.8,46.24,23.08,2
2207773,0.07,-1.0,-0.02,3.46,-1.58,0.03,20.8,46.24,23.08,2
2207786,0.06,-1.0,-0.02,3.84,-1.95,-0.26,20.8,46.24,23.29,2
2207797,0.06,-1.0,-0.02,3.93,-2.06,-0.2,20.8,46.24,23.29,2
2207810,0.06,-1.0,-0.02,3.73,-1.98,0.19,20.8,46.24,23.29,2
2207821,0.06,-1.0,-0.03,3.5,-1.8,0.4,20.8,46.24,23.29,2
2207832,0.06,-1.0,-0.02,3.24,-1.56,0.59,20.84,46.18,23.3,2
2207846,0.06,-1.0,-0.02,2.9,-1.43,0.37,20.84,46.18,23.3,2
2207857,0.06,-1.0,-0.02,2.81,-1.52,0.15,20.84,46.18,23.3,2
2207870,0.06,-1.01,-0.03,2.5,-1.55,0.26,20.84,46.18,23.3,2
2207882,0.06,-1.0,-0.03,2.29,-1.42,0.35,20.91,46.09,23.3,2
2207893,0.06,-1.0,-0.02,2.2,-1.19,0.39,20.91,46.09,23.3,2
2207904,0.06,-1.0,-0.02,2.07,-1.03,0.15,20.91,46.09,23.3,2
2207915,0.06,-1.0,-0.02,2.14,-1.07,-0.04,20.91,46.09,23.3,2
2207927,0.06,-1.0,-0.02,2.26,-1.16,-0.19,20.91,46.09,23.3,2
2207940,0.06,-1.0,-0.02,2.31,-1.34,-0.43,20.95,45.98,23.12,2
2207952,0.06,-1.0,-0.02,2.33,-1.36,-0.6,20.95,45.98,23.12,2
2207964,0.06,-1.0,-0.03,2.36,-1.52,-0.63,20.95,45.98,23.12,2
2207975,0.06,-1.0,-0.03,2.32,-1.51,-0.43,20.95,45.98,23.12,2
2207986,0.06,-1.0,-0.03,2.21,-1.51,-0.33,21.04,45.95,23.04,2
2207999,0.07,-1.0,-0.03,2.42,-2.55,-1.67,21.04,45.95,23.04,2
2208010,0.07,-1.0,-0.02,2.65,-3.4,-2.35,21.04,45.95,23.04,2
2208022,0.06,-1.0,-0.02,2.91,-4.19,-2.67,21.04,45.95,23.04,2
2208035,0.05,-1.01,-0.03,3.24,-4.6,-2.44,21.12,45.83,22.93,2
2208047,0.05,-1.01,-0.03,3.12,-4.54,-1.92,21.12,45.83,22.93,2
2208060,0.05,-1.01,-0.03,2.56,-4.31,-0.87,21.12,45.83,22.93,2
2208072,0.05,-1.0,-0.03,2.27,-4.07,-0.38,21.12,45.83,22.93,2
2208083,0.05,-1.0,-0.03,1.99,-3.78,0.13,21.11,45.86,22.81,2
2208095,0.06,-1.0,-0.03,1.71,-3.2,1.16,21.11,45.86,22.81,2
2208106,0.06,-1.0,-0.03,1.69,-3.07,1.63,21.11,45.86,22.81,2
2208119,0.06,-1.0,-0.03,1.82,-2.65,1.96,21.11,45.86,22.81,2
2208131,0.06,-1.0,-0.03,1.97,-2.43,1.89,21.07,45.88,22.9,2
2208142,0.06,-1.0,-0.03,2.02,-2.35,1.84,21.07,45.88,22.9,2
2208154,0.06,-1.0,-0.03,1.76,-2.59,1.91,21.07,45.88,22.9,2
2208165,0.06,-1.01,-0.03,1.46,-2.8,2.16,21.07,45.88,22.9,2
2208176,0.06,-1.01,-0.03,1.05,-3.31,2.7,21.07,45.88,22.9,2
2208189,0.06,-1.01,-0.03,0.13,-4.59,4.82,21.06,45.95,22.93,2
2208201,0.06,-1.01,-0.03,-0.22,-4.96,5.61,21.06,45.95,22.93,2
2208214,0.06,-1.01,-0.03,-0.84,-5.67,6.79,21.06,45.95,22.93,2
2208225,0.07,-1.0,-0.03,-1.18,-6.09,7.41,21.06,45.95,22.93,2
2208236,0.07,-1.0,-0.02,-1.5,-6.48,7.78,21.21,45.84,23.18,2
2208250,0.07,-1.0,-0.02,-1.65,-6.48,7.0,21.21,45.84,23.18,2
2208261,0.07,-1.0,-0.02,-1.32,-5.79,5.8,21.21,45.84,23.18,2
2208274,0.07,-1.0,-0.02,-0.5,-4.04,3.76,21.21,45.84,23.18,2
2208286,0.07,-1.0,-0.02,-0.35,-3.43,3.39,21.43,45.91,23.16,2
2208298,0.07,-1.0,-0.02,-0.36,-3.05,3.16,21.43,45.91,23.16,2
2208310,0.08,-1.0,-0.02,-0.5,-2.98,2.66,21.43,45.91,23.16,2
2208322,0.08,-1.0,-0.02,-0.57,-3.21,2.29,21.43,45.91,23.16,2
2208334,0.08,-1.0,-0.02,-0.8,-3.93,2.24,21.55,45.89,23.26,2
2208345,0.07,-1.01,-0.02,-1.15,-4.47,2.71,21.55,45.89,23.26,2
2208356,0.07,-1.01,-0.02,-1.68,-5.36,3.47,21.55,45.89,23.26,2
2208370,0.07,-1.0,-0.02,-2.62,-6.56,5.25,21.55,45.89,23.26,2
2208381,0.08,-1.0,-0.01,-2.69,-6.39,5.25,21.62,45.98,23.15,2
2208394,0.08,-1.0,-0.01,-1.81,-5.9,2.78,21.62,45.98,23.15,2
2208405,0.09,-1.0,-0.01,-1.26,-6.12,1.75,21.62,45.98,23.15,2
2208417,0.08,-1.0,-0.01,-0.96,-6.4,1.36,21.62,45.98,23.15,2
2208428,0.08,-1.0,-0.01,-0.79,-6.75,1.48,21.71,46.0,23.12,2
2208439,0.08,-1.01,-0.01,-0.8,-6.91,2.01,21.71,46.0,23.12,2
2208451,0.08,-1.01,-0.01,-1.19,-6.67,3.1,21.71,46.0,23.12,2
2208461,0.08,-1.01,-0.01,-1.78,-6.44,4.44,21.71,46.0,23.12,2
2208473,0.08,-1.0,-0.01,-2.66,-5.24,6.11,21.71,46.0,23.12,2
2208484,0.09,-1.0,-0.0,-2.54,-4.26,5.5,21.89,46.08,23.05,2
2208495,0.09,-1.0,-0.0,-2.21,-3.6,4.38,21.89,46.08,23.05,2
2208507,0.1,-1.0,0.0,-1.47,-3.3,2.78,21.89,46.08,23.05,2
2208519,0.09,-1.0,0.0,-0.98,-3.39,2.09,21.89,46.08,23.05,2
2208530,0.09,-1.0,0.0,-0.48,-3.47,1.34,22.05,46.04,22.73,2
2208542,0.09,-1.0,-0.0,0.23,-3.81,0.28,22.05,46.04,22.73,2
2208552,0.09,-1.0,-0.0,0.32,-4.3,-0.11,22.05,46.04,22.73,2
2208563,0.09,-1.0,-0.0,0.34,-4.65,-0.29,22.05,46.04,22.73,2
2208574,0.09,-1.0,-0.0,0.18,-4.61,-0.5,22.05,46.04,22.73,2
2208587,0.09,-1.0,-0.0,0.11,-4.54,-0.7,22.26,46.0,22.73,2
2208597,0.09,-1.0,-0.0,-0.05,-4.37,-0.8,22.26,46.0,22.73,2
2208610,0.09,-1.0,0.0,-0.2,-3.83,-0.72,22.26,46.0,22.73,2
2208622,0.09,-1.0,0.0,-0.17,-3.52,-0.79,22.26,46.0,22.73,2
2208634,0.09,-1.0,0.0,-0.07,-2.72,-0.5,22.42,46.01,22.52,2
2208645,0.09,-1.0,0.01,0.03,-2.26,-0.45,22.42,46.01,22.52,2
2208657,0.09,-1.0,0.01,0.21,-1.83,-0.48,22.42,46.01,22.52,2
2208670,0.09,-1.0,0.01,0.61,-0.97,-0.16,22.42,46.01,22.52,2
2208682,0.09,-1.0,0.01,0.81,-0.76,-0.27,22.62,46.0,22.29,2
2208692,0.09,-1.0,0.0,1.16,-0.91,-0.61,22.62,46.0,22.29,2
2208702,0.09,-1.0,0.0,1.57,-1.31,-1.14,22.62,46.0,22.29,2
2208714,0.09,-1.0,0.0,2.2,-2.37,-1.87,22.62,46.0,22.29,2
2208724,0.09,-1.0,0.0,2.31,-3.26,-2.21,22.62,46.0,22.29,2
2208735,0.09,-1.0,-0.0,2.26,-3.96,-2.31,22.67,45.97,22.41,2
2208748,0.08,-1.01,-0.0,1.48,-4.76,-2.02,22.67,45.97,22.41,2
2208760,0.08,-1.01,-0.0,0.82,-5.02,-1.49,22.67,45.97,22.41,2
2208774,0.08,-1.01,0.0,-0.36,-5.26,-0.35,22.67,45.97,22.41,2
2208785,0.08,-1.0,0.01,-0.74,-5.11,0.23,22.71,46.0,22.44,2
2208797,0.08,-1.0,0.01,-0.88,-4.12,1.01,22.71,46.0,22.44,2
2208808,0.09,-1.0,0.01,-0.51,-3.76,0.82,22.71,46.0,22.44,2
2208820,0.09,-1.0,0.01,0.08,-3.7,0.24,22.71,46.0,22.44,2
2208832,0.09,-1.0,0.01,1.09,-4.07,-0.73,22.84,46.08,22.44,2
2208843,0.08,-1.0,0.01,1.35,-4.38,-0.96,22.84,46.08,22.44,2
2208854,0.08,-1.0,0.01,1.36,-4.52,-0.9,22.84,46.08,22.44,2
2208868,0.08,-1.01,0.0,0.85,-4.23,0.3,22.84,46.08,22.44,2
2208879,0.08,-1.0,0.01,0.49,-4.02,0.99,22.81,46.04,22.29,2
2208889,0.09,-1.0,0.01,0.27,-3.89,1.4,22.81,46.04,22.29,2
2208899,0.09,-1.0,0.01,0.25,-3.91,1.36,22.81,46.04,22.29,2
2208909,0.09,-1.0,0.01,0.6,-4.54,0.75,22.81,46.04,22.29,2
2208920,0.09,-1.0,0.01,0.7,-4.87,0.62,22.81,46.04,22.29,2
2208931,0.08,-1.0,0.01,0.61,-5.0,0.7,22.89,46.06,22.15,2
2208944,0.08,-1.0,0.01,0.28,-4.65,1.26,22.89,46.06,22.15,2
2208955,0.08,-1.0,0.01,0.21,-4.31,1.53,22.89,46.06,22.15,2
2208965,0.09,-1.0,0.01,0.31,-3.98,1.61,22.89,46.06,22.15,2
2208975,0.09,-1.0,0.01,0.55,-3.74,1.43,22.89,46.06,22.15,2
2208987,0.09,-1.0,0.01,0.93,-3.48,0.98,22.89,46.15,22.03,2
2208997,0.09,-1.0,0.01,0.95,-3.33,0.83,22.89,46.15,22.03,2
2209009,0.09,-1.0,0.01,0.96,-3.31,0.68,22.89,46.15,22.03,2
2209022,0.09,-1.0,0.01,0.85,-3.53,0.48,22.89,46.15,22.03,2
2209033,0.09,-1.0,0.01,0.76,-3.56,0.55,22.94,46.22,21.98,2
2209045,0.09,-1.0,0.01,0.68,-3.44,0.59,22.94,46.22,21.98,2
2209057,0.09,-1.0,0.01,0.69,-3.42,0.5,22.94,46.22,21.98,2
2209068,0.09,-1.0,0.01,0.64,-3.7,0.72,22.94,46.22,21.98,2
2209079,0.09,-1.0,0.01,0.55,-4.11,1.13,22.87,46.25,21.77,2
2209091,0.09,-1.0,0.01,0.59,-4.69,1.68,22.87,46.25,21.77,2
2209103,0.09,-1.0,0.01,0.63,-4.84,1.86,22.87,46.25,21.77,2
2209113,0.08,-1.0,0.01,0.59,-4.83,2.16,22.87,46.25,21.77,2
2209124,0.08,-1.0,0.01,0.33,-4.55,2.97,22.87,46.25,21.77,2
2209136,0.09,-1.0,0.01,0.06,-4.42,3.6,22.84,46.37,21.69,2
2209146,0.09,-1.0,0.01,-0.26,-4.28,4.26,22.84,46.37,21.69,2
2209158,0.1,-1.0,0.02,-0.07,-4.22,3.56,22.84,46.37,21.69,2
2209169,0.1,-1.0,0.02,0.42,-4.15,2.45,22.84,46.37,21.69,2
2209180,0.09,-1.0,0.02,0.86,-4.15,1.51,22.91,46.41,21.69,2
2209193,0.09,-1.0,0.01,0.89,-4.05,1.1,22.91,46.41,21.69,2
2209204,0.08,-1.0,0.01,0.57,-3.71,1.54,22.91,46.41,21.69,2
2209215,0.09,-1.0,0.02,0.31,-3.2,2.01,22.91,46.41,21.69,2
2209230,0.1,-1.0,0.02,0.55,-2.48,1.77,23.04,46.34,21.53,2
2209240,0.1,-1.0,0.02,1.05,-2.48,1.13,23.04,46.34,21.53,2
2209250,0.1,-1.0,0.02,1.54,-2.65,0.49,23.04,46.34,21.53,2
2209260,0.09,-1.0,0.02,1.84,-2.81,0.08,23.04,46.34,21.53,2
2209271,0.09,-1.0,0.01,1.78,-2.7,0.22,23.04,46.34,21.53,2
2209282,0.09,-1.0,0.01,1.42,-2.23,0.58,23.22,46.4,21.49,2
2209294,0.09,-1.0,0.01,1.11,-1.68,0.88,23.22,46.4,21.49,2
2209306,0.09,-1.0,0.02,0.68,-0.76,1.12,23.22,46.4,21.49,2
2209317,0.1,-1.0,0.02,0.78,-0.53,0.96,23.22,46.4,21.49,2
2209328,0.1,-1.0,0.02,1.2,-0.64,0.42,23.41,46.39,21.4,2
2209340,0.1,-1.0,0.02,2.18,-1.31,-0.74,23.41,46.39,21.4,2
2209352,0.09,-1.0,0.02,2.38,-1.57,-1.08,23.41,46.39,21.4,2
2209364,0.09,-1.0,0.01,2.07,-1.97,-1.01,23.41,46.39,21.4,2
2209376,0.09,-1.0,0.01,1.64,-1.98,-0.7,23.5,46.28,21.53,2
2209388,0.09,-1.0,0.01,1.25,-1.85,-0.41,23.5,46.28,21.53,2
2209399,0.09,-1.0,0.02,1.0,-1.81,-0.43,23.5,46.28,21.53,2
2209410,0.09,-1.0,0.02,1.04,-1.87,-0.38,23.5,46.28,21.53,2
2209421,0.09,-1.0,0.02,1.1,-2.06,-0.32,23.5,46.28,21.53,2
2209434,0.09,-1.0,0.02,1.26,-2.3,-0.04,23.45,46.3,21.52,2
2209446,0.09,-1.0,0.02,1.24,-2.36,0.12,23.45,46.3,21.52,2
2209457,0.09,-1.0,0.02,1.22,-2.42,0.2,23.45,46.3,21.52,2
2209469,0.09,-1.0,0.02,1.1,-2.39,0.43,23.45,46.3,21.52,2
2209480,0.09,-1.0,0.02,0.91,-2.3,0.64,23.35,46.3,21.35,2
2209493,0.09,-1.0,0.01,0.39,-2.18,0.63,23.35,46.3,21.35,2
2209504,0.09,-1.0,0.02,0.21,-2.33,0.6,23.35,46.3,21.35,2
2209514,0.1,-1.0,0.02,0.17,-2.6,0.45,23.35,46.3,21.35,2
2209524,0.1,-1.0,0.02,0.21,-2.86,0.19,23.35,46.3,21.35,2
2209535,0.09,-1.0,0.02,0.3,-3.0,0.0,23.47,46.36,21.37,2
2209546,0.09,-1.0,0.02,0.58,-2.63,-0.08,23.47,46.36,21.37,2
2209558,0.09,-1.0,0.02,0.69,-2.34,-0.05,23.47,46.36,21.37,2
2209570,0.09,-1.0,0.02,1.03,-1.9,-0.23,23.47,46.36,21.37,2
2209583,0.09,-1.0,0.02,1.19,-1.73,-0.29,23.55,46.36,21.09,2
2209593,0.09,-1.0,0.02,1.23,-1.63,-0.16,23.55,46.36,21.09,2
2209606,0.09,-1.0,0.02,1.03,-1.39,0.3,23.55,46.36,21.09,2
2209618,0.09,-1.0,0.02,0.96,-1.22,0.46,23.55,46.36,21.09,2
2209629,0.09,-1.0,0.02,0.95,-1.06,0.51,23.57,46.47,21.06,2
2209641,0.1,-1.0,0.02,1.13,-1.1,0.05,23.57,46.47,21.06,2
2209651,0.09,-1.0,0.02,1.26,-1.12,-0.23,23.57,46.47,21.06,2
2209662,0.09,-1.0,0.02,1.32,-1.1,-0.22,23.57,46.47,21.06,2
2209673,0.09,-1.0,0.02,1.16,-0.77,0.26,23.57,46.47,21.06,2
2209685,0.1,-1.0,0.02,1.27,-0.64,0.12,23.64,46.49,21.02,2
2209697,0.1,-1.0,0.03,1.63,-0.65,-0.39,23.64,46.49,21.02,2
2209708,0.1,-1.0,0.03,2.4,-0.81,-1.06,23.64,46.49,21.02,2
2209719,0.09,-1.0,0.02,2.53,-0.82,-1.07,23.64,46.49,21.02,2
2209730,0.09,-1.0,0.02,2.43,-0.67,-0.79,23.71,46.45,20.99,2
2209742,0.09,-1.0,0.02,1.91,-0.03,-0.27,23.71,46.45,20.99,2
2209753,0.09,-1.0,0.02,1.85,0.22,-0.36,23.71,46.45,20.99,2
2209765,0.1,-1.0,0.02,1.97,0.46,-0.48,23.71,46.45,20.99,2
2209776,0.09,-1.0,0.02,2.12,0.74,-0.67,23.67,46.47,21.0,2
2209787,0.09,-1.0,0.03,2.32,1.18,-0.89,23.67,46.47,21.0,2
2209797,0.09,-1.0,0.02,2.64,1.94,-1.22,23.67,46.47,21.0,2
2209807,0.09,-1.0,0.02,3.0,2.61,-1.43,23.67,46.47,21.0,2
2209818,0.09,-1.0,0.02,3.15,3.2,-1.41,23.67,46.47,21.0,2
2209831,0.09,-1.0,0.02,3.1,3.77,-1.08,23.63,46.48,21.06,2
2209841,0.09,-1.0,0.02,3.2,3.72,-1.12,23.63,46.48,21.06,2
2209851,0.09,-1.0,0.02,3.38,3.4,-1.32,23.63,46.48,21.06,2
2209864,0.08,-1.0,0.02,3.57,2.84,-1.43,23.63,46.48,21.06,2
2209876,0.08,-1.0,0.02,3.66,3.01,-1.55,23.61,46.5,21.03,2
2209890,0.09,-1.0,0.02,4.35,3.1,-3.32,23.61,46.5,21.03,2
2209901,0.09,-1.0,0.01,4.51,2.85,-3.93,23.61,46.5,21.03,2
2209914,0.08,-1.0,0.01,4.43,1.51,-3.92,23.61,46.5,21.03,2
2209926,0.08,-1.0,0.01,4.4,0.59,-3.82,23.6,46.47,21.14,2
2209937,0.08,-1.01,0.01,4.21,-0.21,-3.52,23.6,46.47,21.14,2
2209948,0.08,-1.01,0.01,3.2,-1.73,-2.53,23.6,46.47,21.14,2
2209959,0.08,-1.01,0.01,2.6,-2.34,-1.8,23.6,46.47,21.14,2
2209971,0.08,-1.01,0.01,1.94,-2.81,-1.04,23.6,46.47,21.14,2
2209984,0.08,-1.0,0.01,0.45,-3.55,1.16,23.61,46.37,21.3,2
2209995,0.08,-1.0,0.01,-0.25,-3.71,2.16,23.61,46.37,21.3,2
2210007,0.08,-1.0,0.01,-0.7,-3.65,2.77,23.61,46.37,21.3,2
2210019,0.08,-1.0,0.02,-0.94,-2.79,3.0,23.61,46.37,21.3,2
2210030,0.08,-1.0,0.02,-0.79,-2.08,2.82,23.42,46.51,21.23,2
2210042,0.08,-1.0,0.02,-0.34,-0.27,2.35,23.42,46.51,21.23,2
2210053,0.08,-1.0,0.02,-0.07,0.77,2.13,23.42,46.51,21.23,2
2210065,0.09,-1.0,0.02,0.35,1.54,1.67,23.42,46.51,21.23,2
2210076,0.09,-1.0,0.02,0.87,1.97,0.87,23.41,46.53,21.43,2
2210088,0.09,-1.0,0.02,1.95,2.28,-1.32,23.41,46.53,21.43,2
2210099,0.08,-1.0,0.02,2.38,2.41,-2.21,23.41,46.53,21.43,2
2210111,0.08,-1.0,0.02,2.82,3.13,-2.65,23.41,46.53,21.43,2
2210122,0.08,-1.0,0.01,2.74,3.32,-2.51,23.41,46.53,21.43,2
2210133,0.08,-1.0,0.01,2.55,3.15,-2.41,23.41,46.65,21.36,2
2210146,0.08,-1.0,0.01,2.14,2.32,-2.44,23.41,46.65,21.36,2
2210157,0.08,-1.0,0.01,1.88,1.88,-2.48,23.41,46.65,21.36,2
2210168,0.08,-1.0,0.01,1.72,1.65,-2.58,23.41,46.65,21.36,2
2210181,0.08,-1.0,0.02,1.9,1.76,-3.36,23.37,46.54,21.26,2
2210193,0.08,-1.0,0.02,2.23,2.04,-3.83,23.37,46.54,21.26,2
2210205,0.08,-1.0,0.02,2.56,2.58,-4.25,23.37,46.54,21.26,2
2210216,0.07,-1.0,0.02,3.53,4.2,-5.58,23.37,46.54,21.26,2
2210227,0.07,-1.0,0.02,4.01,5.2,-6.38,23.28,46.55,21.15,2
2210239,0.07,-1.0,0.01,4.36,5.99,-6.84,23.28,46.55,21.15,2
2210251,0.07,-1.0,0.01,4.24,6.86,-6.3,23.28,46.55,21.15,2
2210262,0.07,-1.0,0.01,4.05,6.96,-5.88,23.28,46.55,21.15,2
2210277,0.07,-1.0,0.01,3.82,7.05,-6.05,23.15,46.47,21.26,2
2210287,0.07,-1.0,0.01,3.86,6.88,-6.67,23.15,46.47,21.26,2
2210298,0.07,-1.0,0.01,4.05,6.66,-7.51,23.15,46.47,21.26,2
2210310,0.06,-1.0,0.01,4.48,6.33,-8.68,23.15,46.47,21.26,2
2210322,0.06,-1.0,0.01,4.69,6.34,-9.09,23.15,46.47,21.26,2
2210333,0.06,-1.0,0.0,4.92,6.35,-9.56,22.98,46.5,21.22,2
2210345,0.05,-1.0,0.0,5.22,6.17,-10.59,22.98,46.5,21.22,2
2210355,0.05,-1.01,0.0,5.31,5.96,-10.72,22.98,46.5,21.22,2
2210365,0.04,-1.0,-0.0,5.31,6.25,-10.52,22.98,46.5,21.22,2
2210376,0.04,-1.0,-0.0,5.31,7.19,-10.27,22.67,46.57,21.53,2
2210388,0.04,-1.01,-0.0,5.17,8.4,-10.27,22.67,46.57,21.53,2
2210400,0.04,-1.01,-0.01,4.79,8.27,-10.24,22.67,46.57,21.53,2
2210410,0.04,-1.01,-0.0,4.3,7.68,-10.07,22.67,46.57,21.53,2
2210421,0.03,-1.0,-0.01,4.32,5.94,-10.69,22.67,46.57,21.53,2
2210433,0.04,-1.01,-0.0,4.56,5.34,-11.33,22.33,46.64,21.53,2
2210444,0.03,-1.0,-0.0,4.62,5.08,-10.91,22.33,46.64,21.53,2
2210456,0.02,-1.0,-0.01,4.67,4.9,-10.09,22.33,46.64,21.53,2
2210468,0.03,-1.0,-0.01,5.32,4.78,-11.08,22.33,46.64,21.53,2
2210479,0.03,-1.01,-0.01,5.83,4.72,-12.3,21.97,46.71,21.96,2
2210491,0.02,-1.01,-0.01,5.64,4.25,-11.88,21.97,46.71,21.96,2
2210502,0.02,-1.01,-0.01,5.18,3.77,-11.11,21.97,46.71,21.96,2
2210515,0.01,-1.01,-0.02,4.71,2.83,-10.33,21.97,46.71,21.96,2
2210527,0.01,-1.01,-0.01,4.5,2.44,-10.38,21.5,46.57,22.04,2
2210539,0.01,-1.01,-0.01,4.23,2.47,-9.65,21.5,46.57,22.04,2
2210551,0.0,-1.01,-0.01,4.39,2.45,-8.98,21.5,46.57,22.04,2
2210562,0.0,-1.01,-0.01,4.61,2.95,-8.54,21.5,46.57,22.04,2
2210576,0.01,-1.01,-0.01,4.7,2.89,-7.4,21.19,46.48,22.32,2
2210588,0.01,-1.01,-0.01,4.81,2.4,-6.6,21.19,46.48,22.32,2
2210599,0.01,-1.01,-0.01,4.86,2.13,-5.79,21.19,46.48,22.32,2
2210611,0.0,-1.01,-0.01,4.7,1.55,-4.6,21.19,46.48,22.32,2
2210623,-0.0,-1.01,-0.02,4.45,1.17,-3.95,21.19,46.48,22.32,2
2210634,-0.01,-1.01,-0.02,4.18,0.87,-3.37,20.77,46.45,22.36,2
2210646,-0.01,-1.01,-0.02,3.88,0.87,-2.82,20.77,46.45,22.36,2
2210658,-0.01,-1.01,-0.02,3.73,0.92,-2.62,20.77,46.45,22.36,2
2210671,-0.01,-1.0,-0.02,3.45,0.76,-2.05,20.77,46.45,22.36,2
2210682,-0.01,-1.01,-0.02,3.47,0.83,-1.69,20.41,46.46,22.35,2
2210695,-0.01,-1.0,-0.02,3.49,1.05,-1.31,20.41,46.46,22.35,2
2210706,-0.01,-1.01,-0.02,3.35,1.0,-1.17,20.41,46.46,22.35,2
2210718,-0.01,-1.01,-0.02,3.22,0.92,-1.07,20.41,46.46,22.35,2
2210730,-0.01,-1.01,-0.02,2.75,0.85,-0.25,20.19,46.49,22.77,2
2210741,-0.01,-1.01,-0.02,2.4,0.86,0.4,20.19,46.49,22.77,2
2210752,-0.01,-1.01,-0.02,1.96,1.01,1.05,20.19,46.49,22.77,2
2210766,-0.01,-1.01,-0.02,1.38,1.86,1.94,20.19,46.49,22.77,2
2210777,-0.0,-1.0,-0.02,1.32,2.13,1.95,20.06,46.46,22.92,2
2210788,-0.0,-1.0,-0.02,1.48,2.17,1.78,20.06,46.46,22.92,2
2210800,-0.0,-1.0,-0.02,2.17,2.06,0.64,20.06,46.46,22.92,2
2210812,-0.0,-1.0,-0.02,2.64,1.94,-0.04,20.06,46.46,22.92,2
2210826,-0.01,-1.01,-0.02,3.22,1.65,-0.82,19.81,46.52,23.07,2
2210838,-0.01,-1.01,-0.02,3.21,1.54,-0.77,19.81,46.52,23.07,2
2210852,-0.01,-1.01,-0.03,2.52,1.48,-0.38,19.81,46.52,23.07,2
2210862,-0.01,-1.01,-0.03,2.13,1.52,-0.05,19.81,46.52,23.07,2
2210874,-0.01,-1.01,-0.03,1.74,1.61,0.4,19.69,46.51,23.16,2
2210886,-0.01,-1.01,-0.02,1.29,1.84,0.98,19.69,46.51,23.16,2
2210898,-0.0,-1.01,-0.02,1.3,1.86,0.88,19.69,46.51,23.16,2
2210911,-0.01,-1.0,-0.02,1.55,1.43,0.7,19.69,46.51,23.16,2
2210924,-0.01,-1.0,-0.02,1.82,1.4,0.53,19.6,46.58,23.19,2
2210937,-0.01,-1.0,-0.02,2.47,1.89,-0.09,19.6,46.58,23.19,2
2210949,-0.01,-1.01,-0.02,2.59,2.19,-0.16,19.6,46.58,23.19,2
2210963,-0.01,-1.01,-0.03,2.52,2.64,0.48,19.6,46.58,23.19,2
2210974,-0.02,-1.01,-0.03,2.38,3.01,1.0,19.5,46.49,23.25,2
2210985,-0.01,-1.01,-0.03,2.19,3.51,1.56,19.5,46.49,23.25,2
2210997,0.0,-1.0,-0.02,2.32,4.04,1.39,19.5,46.49,23.25,2
2211009,0.01,-1.0,-0.02,2.66,3.96,0.62,19.5,46.49,23.25,2
2211021,0.0,-1.0,-0.02,3.76,3.24,-0.95,19.5,46.49,23.25,2
2211033,-0.0,-1.0,-0.02,4.28,2.91,-1.32,19.37,46.49,23.23,2
2211045,-0.01,-1.0,-0.02,4.61,2.78,-1.46,19.37,46.49,23.23,2
2211056,-0.01,-1.01,-0.03,4.65,2.94,-1.35,19.37,46.49,23.23,2
2211067,-0.01,-1.01,-0.03,4.47,3.18,-1.17,19.37,46.49,23.23,2
2211078,-0.01,-1.01,-0.03,4.21,3.22,-0.97,19.26,46.52,23.46,2
2211090,-0.01,-1.01,-0.03,3.81,2.96,-0.57,19.26,46.52,23.46,2
2211101,-0.01,-1.0,-0.03,3.79,2.79,-0.52,19.26,46.52,23.46,2
2211113,-0.01,-1.0,-0.03,3.96,2.62,-0.56,19.26,46.52,23.46,2
2211124,-0.01,-1.0,-0.03,4.17,2.43,-0.59,19.18,46.49,23.55,2
2211135,-0.01,-1.01,-0.03,4.34,2.26,-0.73,19.18,46.49,23.55,2
2211147,-0.01,-1.01,-0.03,4.42,2.02,-1.11,19.18,46.49,23.55,2
2211161,-0.01,-1.01,-0.03,4.37,1.43,-1.58,19.18,46.49,23.55,2
2211173,-0.01,-1.01,-0.04,4.25,1.18,-1.66,19.03,46.46,23.61,2
2211187,-0.02,-1.01,-0.04,3.83,0.77,-0.99,19.03,46.46,23.61,2
2211199,-0.02,-1.01,-0.04,3.57,0.75,-0.52,19.03,46.46,23.61,2
2211212,-0.01,-1.01,-0.04,3.21,0.74,-0.12,19.03,46.46,23.61,2
2211223,-0.01,-1.01,-0.04,3.11,0.5,-0.2,18.97,46.48,23.53,2
2211236,-0.01,-1.01,-0.04,3.05,-0.25,-0.27,18.97,46.48,23.53,2
2211247,-0.01,-1.01,-0.04,3.03,-0.56,-0.23,18.97,46.48,23.53,2
2211259,-0.02,-1.01,-0.04,2.91,-0.88,-0.13,18.97,46.48,23.53,2
2211274,-0.02,-1.01,-0.04,2.35,-1.33,0.56,18.99,46.31,23.61,2
2211286,-0.01,-1.01,-0.04,1.92,-1.52,1.03,18.99,46.31,23.61,2
2211297,-0.02,-1.01,-0.04,1.37,-1.64,1.58,18.99,46.31,23.61,2
2211308,-0.01,-1.0,-0.04,1.35,-1.63,1.7,18.99,46.31,23.61,2
2211319,-0.01,-1.0,-0.03,1.51,-1.62,1.58,18.99,46.31,23.61,2
2211333,-0.01,-1.0,-0.03,2.09,-1.4,1.0,18.89,46.32,23.54,2
2211343,-0.01,-1.0,-0.04,2.32,-1.4,0.68,18.89,46.32,23.54,2
2211353,-0.01,-1.01,-0.04,2.42,-1.53,0.46,18.89,46.32,23.54,2
2211366,-0.02,-1.01,-0.04,2.13,-1.59,0.39,18.89,46.32,23.54,2
2211378,-0.02,-1.0,-0.04,1.96,-1.42,0.19,18.72,46.39,23.27,2
2211390,-0.02,-1.01,-0.04,1.79,-1.2,0.14,18.72,46.39,23.27,2
2211402,-0.01,-1.01,-0.04,1.42,-0.83,0.64,18.72,46.39,23.27,2
2211413,-0.01,-1.0,-0.04,1.31,-0.74,0.69,18.72,46.39,23.27,2
2211425,-0.01,-1.0,-0.04,1.54,-0.82,0.14,18.56,46.35,23.28,2
2211437,-0.01,-1.0,-0.03,1.78,-0.91,-0.07,18.56,46.35,23.28,2
2211448,-0.01,-1.0,-0.03,1.93,-0.9,-0.22,18.56,46.35,23.28,2
2211460,-0.01,-1.0,-0.04,2.32,-0.77,-0.35,18.56,46.35,23.28,2
2211471,-0.01,-1.0,-0.04,2.46,-0.56,-0.33,18.56,46.35,23.28,2
2211482,-0.01,-1.0,-0.04,2.57,-0.32,-0.3,18.53,46.32,23.35,2
2211492,-0.01,-1.0,-0.04,2.63,-0.13,-0.2,18.53,46.32,23.35,2
2211504,-0.01,-1.01,-0.04,2.7,0.27,0.17,18.53,46.32,23.35,2
2211515,-0.01,-1.01,-0.04,2.63,0.37,0.25,18.53,46.32,23.35,2
2211526,-0.01,-1.0,-0.04,2.55,0.36,0.13,18.43,46.22,23.37,2
2211538,-0.01,-1.0,-0.04,2.58,0.19,-0.26,18.43,46.22,23.37,2
2211550,-0.01,-1.0,-0.04,2.71,0.18,-0.44,18.43,46.22,23.37,2
2211563,-0.01,-1.0,-0.04,3.06,0.31,-0.48,18.43,46.22,23.37,2
2211575,-0.02,-1.01,-0.04,3.15,0.55,-0.29,18.46,46.17,23.39,2
2211585,-0.02,-1.0,-0.04,3.18,0.91,-0.09,18.46,46.17,23.39,2
2211598,-0.01,-1.01,-0.04,3.19,1.63,-0.1,18.46,46.17,23.39,2
2211609,-0.0,-1.0,-0.04,3.21,1.49,-0.36,18.46,46.17,23.39,2
2211620,-0.01,-1.0,-0.04,3.34,1.16,-0.7,18.46,46.17,23.39,2
2211633,-0.01,-1.0,-0.04,3.78,0.99,-1.62,18.32,46.13,23.52,2
2211645,-0.01,-1.01,-0.04,3.98,1.0,-2.11,18.32,46.13,23.52,2
2211658,-0.02,-1.01,-0.05,3.92,1.11,-1.88,18.32,46.13,23.52,2
2211670,-0.02,-1.01,-0.05,3.69,1.28,-1.36,18.32,46.13,23.52,2
2211681,-0.02,-1.01,-0.05,3.52,1.56,-0.82,18.37,46.11,23.49,2
2211693,-0.01,-1.0,-0.05,3.17,1.66,-0.67,18.37,46.11,23.49,2
2211705,-0.01,-1.0,-0.05,3.19,1.63,-0.83,18.37,46.11,23.49,2
2211719,-0.01,-1.0,-0.04,3.43,1.2,-0.86,18.37,46.11,23.49,2
2211730,-0.02,-1.0,-0.05,3.52,1.02,-0.64,18.33,46.1,23.64,2
2211741,-0.02,-1.01,-0.05,3.56,0.89,-0.39,18.33,46.1,23.64,2
2211753,-0.02,-1.01,-0.05,3.26,0.84,0.12,18.33,46.1,23.64,2
2211765,-0.02,-1.01,-0.05,2.92,0.75,0.5,18.33,46.1,23.64,2
2211777,-0.02,-1.01,-0.05,1.93,0.45,1.08,18.3,46.1,23.9,2
2211788,-0.01,-1.0,-0.05,1.5,0.2,1.11,18.3,46.1,23.9,2
2211800,-0.01,-1.0,-0.05,1.21,-0.02,1.12,18.3,46.1,23.9,2
2211813,-0.01,-1.01,-0.05,1.07,-0.49,1.21,18.3,46.1,23.9,2
2211825,-0.01,-1.01,-0.05,1.1,-0.71,1.23,18.31,46.04,23.83,2
2211835,-0.02,-1.01,-0.05,1.13,-0.86,1.27,18.31,46.04,23.83,2
2211846,-0.02,-1.0,-0.05,1.21,-0.89,1.32,18.31,46.04,23.83,2
2211857,-0.01,-1.0,-0.05,1.27,-0.95,1.27,18.31,46.04,23.83,2
2211868,-0.01,-1.0,-0.05,1.31,-1.01,1.22,18.31,46.04,23.83,2
2211881,-0.01,-1.0,-0.05,1.21,-1.24,0.87,18.25,46.03,24.02,2
2211892,-0.01,-1.0,-0.05,1.2,-1.37,0.46,18.25,46.03,24.02,2
2211903,-0.01,-1.0,-0.05,1.22,-1.53,0.08,18.25,46.03,24.02,2
2211917,-0.02,-1.01,-0.05,0.99,-1.68,0.01,18.25,46.03,24.02,2
2211928,-0.02,-1.01,-0.05,0.75,-1.67,0.29,18.31,45.91,23.87,2
2211942,-0.02,-1.01,-0.05,0.28,-1.67,0.68,18.31,45.91,23.87,2
2211953,-0.01,-1.01,-0.05,0.03,-1.74,0.72,18.31,45.91,23.87,2
2211964,-0.01,-1.0,-0.05,-0.14,-1.84,0.79,18.31,45.91,23.87,2
2211977,-0.01,-1.0,-0.05,-0.25,-2.06,0.71,18.3,45.94,23.95,2
2211988,-0.02,-1.01,-0.05,-0.22,-2.13,0.66,18.3,45.94,23.95,2
2211999,-0.02,-1.01,-0.05,-0.26,-2.05,0.66,18.3,45.94,23.95,2
2212011,-0.02,-1.01,-0.04,-0.39,-1.69,1.07,18.3,45.94,23.95,2
2212023,-0.01,-1.0,-0.04,-0.4,-1.54,1.2,18.24,45.91,24.01,2
2212034,-0.01,-1.0,-0.04,-0.35,-1.4,1.27,18.24,45.91,24.01,2
2212045,-0.01,-1.01,-0.04,-0.31,-1.36,1.27,18.24,45.91,24.01,2
2212057,-0.01,-1.01,-0.04,-0.3,-1.36,1.13,18.24,45.91,24.01,2
2212067,-0.01,-1.01,-0.04,-0.29,-1.38,1.15,18.24,45.91,24.01,2
2212080,-0.01,-1.01,-0.04,-0.45,-1.38,1.45,18.24,46.02,24.05,2
2212091,-0.01,-1.0,-0.04,-0.48,-1.4,1.48,18.24,46.02,24.05,2
2212102,-0.01,-1.0,-0.04,-0.48,-1.47,1.54,18.24,46.02,24.05,2
2212114,-0.01,-1.0,-0.04,-0.11,-1.5,1.7,18.24,46.02,24.05,2
2212125,-0.01,-1.0,-0.04,0.1,-1.49,1.72,18.25,45.94,23.89,2
2212136,-0.01,-1.0,-0.04,0.32,-1.47,1.82,18.25,45.94,23.89,2
2212149,-0.01,-1.01,-0.04,0.45,-1.33,2.11,18.25,45.94,23.89,2
2212159,-0.01,-1.01,-0.04,0.36,-1.34,2.27,18.25,45.94,23.89,2
2212169,-0.01,-1.0,-0.04,0.24,-1.26,2.38,18.25,45.94,23.89,2
2212181,-0.01,-1.0,-0.04,0.17,-1.01,2.34,18.26,45.86,23.86,2
2212192,-0.0,-1.0,-0.03,0.22,-0.84,2.16,18.26,45.86,23.86,2
2212204,-0.0,-1.0,-0.03,0.5,-0.7,1.8,18.26,45.86,23.86,2
2212214,-0.0,-1.0,-0.03,0.95,-0.53,1.2,18.26,45.86,23.86,2
2212227,-0.01,-1.0,-0.03,1.9,-0.08,0.04,18.32,45.9,23.79,2
2212238,-0.01,-1.01,-0.04,2.18,0.22,-0.3,18.32,45.9,23.79,2
2212249,-0.01,-1.01,-0.04,2.27,0.92,-0.3,18.32,45.9,23.79,2
2212260,-0.01,-1.01,-0.04,2.09,1.16,-0.05,18.32,45.9,23.79,2
2212273,-0.01,-1.01,-0.04,1.93,1.29,0.14,18.36,45.95,23.63,2
2212284,-0.0,-1.0,-0.04,1.83,1.3,-0.03,18.36,45.95,23.63,2
2212295,-0.0,-1.0,-0.03,1.99,1.2,-0.34,18.36,45.95,23.63,2
2212306,-0.0,-1.0,-0.03,2.27,1.09,-0.56,18.36,45.95,23.63,2
2212320,-0.01,-1.0,-0.04,2.93,0.94,-0.87,18.36,45.95,23.63,2
2212331,-0.01,-1.0,-0.04,3.21,0.83,-0.96,18.44,45.95,23.39,2
2212342,-0.01,-1.0,-0.04,3.42,0.8,-0.88,18.44,45.95,23.39,2
2212354,-0.01,-1.01,-0.04,3.76,0.99,-0.53,18.44,45.95,23.39,2
2212365,-0.01,-1.01,-0.04,3.82,0.97,-0.64,18.44,45.95,23.39,2
2212376,-0.01,-1.0,-0.04,3.8,0.91,-0.79,18.46,46.06,23.66,2
2212386,-0.01,-1.0,-0.04,3.82,0.77,-1.02,18.46,46.06,23.66,2
2212398,-0.01,-1.0,-0.04,4.03,0.9,-1.75,18.46,46.06,23.66,2
2212409,-0.01,-1.0,-0.04,4.19,0.85,-1.84,18.46,46.06,23.66,2
2212424,-0.01,-1.0,-0.04,4.26,0.66,-1.19,18.37,45.99,23.53,2
2212435,-0.01,-1.01,-0.04,4.27,0.47,-1.15,18.37,45.99,23.53,2
2212446,-0.01,-1.01,-0.04,4.3,0.31,-1.28,18.37,45.99,23.53,2
2212457,-0.01,-1.01,-0.05,4.14,-0.23,-1.46,18.37,45.99,23.53,2
2212468,-0.01,-1.01,-0.05,3.94,-0.49,-1.35,18.37,45.99,23.53,2
2212479,-0.01,-1.01,-0.05,3.64,-0.62,-1.05,18.24,45.87,23.79,2
2212490,-0.02,-1.01,-0.05,2.66,-0.64,-0.3,18.24,45.87,23.79,2
2212501,-0.02,-1.01,-0.05,2.21,-0.68,0.09,18.24,45.87,23.79,2
2212513,-0.01,-1.0,-0.05,1.92,-0.71,0.31,18.24,45.87,23.79,2
2212524,-0.01,-1.0,-0.05,1.84,-0.74,0.33,18.08,45.86,23.94,2
2212535,-0.01,-1.0,-0.04,1.88,-0.7,0.42,18.08,45.86,23.94,2
2212547,-0.01,-1.0,-0.04,1.92,-0.52,0.53,18.08,45.86,23.94,2
2212560,-0.01,-1.0,-0.04,2.24,-0.36,0.53,18.08,45.86,23.94,2
2212571,-0.01,-1.0,-0.04,2.39,-0.45,0.48,18.06,45.92,23.67,2
2212583,-0.01,-1.0,-0.05,2.55,-0.62,0.41,18.06,45.92,23.67,2
2212595,-0.01,-1.0,-0.05,2.93,-1.08,-0.04,18.06,45.92,23.67,2
2212607,-0.02,-1.0,-0.05,3.02,-1.07,-0.16,18.06,45.92,23.67,2
2212622,-0.01,-1.01,-0.05,2.97,-0.9,-0.45,17.96,46.01,23.82,2
2212634,-0.01,-1.0,-0.05,2.92,-1.08,-0.63,17.96,46.01,23.82,2
2212645,-0.01,-1.0,-0.05,2.99,-1.59,-0.81,17.96,46.01,23.82,2
2212656,-0.01,-1.0,-0.05,3.13,-1.84,-0.78,17.96,46.01,23.82,2
2212667,-0.01,-1.0,-0.05,3.2,-2.0,-0.73,17.96,46.01,23.82,2
2212681,-0.02,-1.01,-0.05,3.17,-1.97,-0.23,17.88,45.98,23.72,2
2212693,-0.02,-1.01,-0.05,2.98,-1.84,0.19,17.88,45.98,23.72,2
2212706,-0.02,-1.01,-0.05,2.41,-1.58,0.4,17.88,45.98,23.72,2
2212718,-0.01,-1.01,-0.05,2.03,-1.61,0.33,17.88,45.98,23.72,2
2212729,-0.01,-1.01,-0.05,1.62,-1.68,0.39,17.96,45.95,23.7,2
2212741,-0.01,-1.0,-0.05,1.05,-1.69,0.58,17.96,45.95,23.7,2
2212753,-0.01,-1.0,-0.05,0.88,-1.5,0.65,17.96,45.95,23.7,2
2212766,-0.01,-1.0,-0.05,0.8,-1.31,0.55,17.96,45.95,23.7,2
2212778,-0.01,-1.0,-0.05,0.87,-1.21,0.37,17.98,45.86,23.81,2
2212789,-0.01,-1.0,-0.05,1.01,-1.06,0.1,17.98,45.86,23.81,2
2212801,-0.01,-1.0,-0.05,1.37,-0.75,-0.64,17.98,45.86,23.81,2
2212813,-0.01,-1.0,-0.05,1.59,-0.67,-1.03,17.98,45.86,23.81,2
2212825,-0.01,-1.0,-0.05,2.21,-0.52,-2.42,18.06,45.77,23.67,2
2212836,-0.01,-1.0,-0.05,2.58,-0.43,-3.03,18.06,45.77,23.67,2
2212848,-0.01,-1.0,-0.05,2.85,-0.33,-3.42,18.06,45.77,23.67,2
2212862,-0.02,-1.0,-0.05,2.99,0.08,-3.33,18.06,45.77,23.67,2
2212873,-0.02,-1.01,-0.05,2.99,0.33,-3.31,17.95,45.79,23.76,2
2212883,-0.02,-1.01,-0.05,2.88,0.45,-2.97,17.95,45.79,23.76,2
2212894,-0.02,-1.01,-0.05,2.26,0.55,-1.53,17.95,45.79,23.76,2
2212905,-0.02,-1.01,-0.05,2.12,0.46,-1.18,17.95,45.79,23.76,2
2212917,-0.02,-1.01,-0.05,2.09,0.25,-1.05,17.95,45.79,23.76,2
2212929,-0.02,-1.0,-0.05,2.1,-0.2,-0.65,18.06,45.75,23.82,2
2212940,-0.02,-1.0,-0.05,2.11,-0.38,-0.47,18.06,45.75,23.82,2
2212952,-0.02,-1.0,-0.05,2.13,-0.53,-0.4,18.06,45.75,23.82,2
2212964,-0.02,-1.01,-0.05,2.06,-1.11,-0.62,18.06,45.75,23.82,2
2212975,-0.02,-1.01,-0.05,1.89,-1.41,-0.47,18.12,45.8,23.97,2
2212987,-0.03,-1.01,-0.05,1.67,-1.64,-0.07,18.12,45.8,23.97,2
2212999,-0.03,-1.0,-0.05,1.11,-1.54,0.8,18.12,45.8,23.97,2
2213011,-0.02,-1.0,-0.05,0.9,-1.31,0.89,18.12,45.8,23.97,2
2213022,-0.02,-1.01,-0.05,0.77,-1.12,0.88,18.04,45.79,24.04,2
2213033,-0.01,-1.0,-0.05,0.75,-1.02,0.86,18.04,45.79,24.04,2
2213045,-0.01,-1.0,-0.05,0.91,-1.12,0.35,18.04,45.79,24.04,2
2213055,-0.02,-1.0,-0.05,1.14,-1.22,0.02,18.04,45.79,24.04,2
2213066,-0.02,-1.0,-0.05,1.48,-1.26,-0.18,18.04,45.79,24.04,2
2213078,-0.02,-1.0,-0.05,1.6,-1.18,-0.35,17.91,45.72,24.23,2
2213089,-0.02,-1.0,-0.05,1.68,-1.18,-0.49,17.91,45.72,24.23,2
2213101,-0.02,-1.0,-0.05,1.7,-1.06,-0.47,17.91,45.72,24.23,2
2213113,-0.02,-1.0,-0.05,1.85,-0.98,-0.6,17.91,45.72,24.23,2
2213126,-0.02,-1.0,-0.05,2.33,-0.9,-1.24,17.99,45.71,24.36,2
2213137,-0.02,-1.01,-0.05,2.43,-1.12,-1.38,17.99,45.71,24.36,2
2213149,-0.02,-1.01,-0.05,2.39,-1.34,-1.21,17.99,45.71,24.36,2
2213160,-0.03,-1.01,-0.05,2.01,-1.7,0.04,17.99,45.71,24.36,2
2213172,-0.03,-1.01,-0.05,1.68,-1.91,0.94,18.02,45.75,24.47,2
2213182,-0.03,-1.01,-0.05,1.25,-2.13,1.86,18.02,45.75,24.47,2
2213194,-0.03,-1.01,-0.05,0.44,-2.36,3.4,18.02,45.75,24.47,2
2213205,-0.02,-1.0,-0.05,0.21,-2.46,3.6,18.02,45.75,24.47,2
2213217,-0.02,-1.0,-0.05,0.12,-2.65,3.45,18.02,45.75,24.47,2
2213230,-0.01,-1.0,-0.05,0.13,-3.1,2.6,17.97,45.81,24.32,2
2213242,-0.01,-1.0,-0.05,0.13,-3.61,2.45,17.97,45.81,24.32,2
2213255,-0.02,-1.0,-0.05,0.09,-3.71,2.77,17.97,45.81,24.32,2
2213265,-0.02,-1.0,-0.05,0.26,-3.41,2.16,17.97,45.81,24.32,2
2213277,-0.01,-1.0,-0.05,0.4,-3.08,1.6,17.99,45.83,24.38,2
2213287,-0.01,-1.0,-0.05,0.46,-2.67,1.26,17.99,45.83,24.38,2
2213299,-0.01,-1.0,-0.05,0.7,-1.69,0.68,17.99,45.83,24.38,2
2213311,-0.01,-1.0,-0.04,0.98,-1.28,0.19,17.99,45.83,24.38,2
2213322,-0.01,-1.0,-0.04,1.35,-1.02,-0.32,18.13,45.87,24.12,2
2213334,-0.0,-1.0,-0.04,2.3,-0.88,-1.27,18.13,45.87,24.12,2
2213346,-0.01,-1.0,-0.04,2.94,-1.0,-1.73,18.13,45.87,24.12,2
2213359,-0.01,-1.0,-0.05,4.28,-1.32,-2.26,18.13,45.87,24.12,2
2213371,-0.02,-1.0,-0.05,4.7,-1.56,-2.46,18.12,45.8,24.25,2
2213385,-0.02,-1.01,-0.05,5.08,-2.02,-2.81,18.12,45.8,24.25,2
2213395,-0.02,-1.01,-0.05,4.9,-2.27,-2.7,18.12,45.8,24.25,2
2213406,-0.03,-1.01,-0.06,4.6,-2.54,-2.32,18.12,45.8,24.25,2
2213418,-0.03,-1.01,-0.06,3.64,-2.76,-0.7,18.12,45.8,24.25,2
2213429,-0.04,-1.01,-0.06,3.18,-2.79,0.07,18.06,45.68,24.34,2
2213441,-0.03,-1.01,-0.06,2.68,-2.78,0.53,18.06,45.68,24.34,2
2213452,-0.03,-1.01,-0.06,1.69,-3.23,1.2,18.06,45.68,24.34,2
2213463,-0.02,-1.01,-0.06,1.37,-3.9,1.38,18.06,45.68,24.34,2
2213474,-0.02,-1.01,-0.06,1.07,-4.64,1.7,18.04,45.78,24.18,2
2213486,-0.02,-1.01,-0.06,0.28,-5.75,2.81,18.04,45.78,24.18,2
2213497,-0.02,-1.01,-0.06,-0.16,-6.36,3.07,18.04,45.78,24.18,2
2213509,-0.02,-1.01,-0.05,-0.53,-6.91,3.36,18.04,45.78,24.18,2
2213521,-0.02,-1.0,-0.05,-0.86,-7.33,3.56,18.07,45.86,23.94,2
2213533,-0.02,-1.0,-0.05,-0.68,-7.3,3.11,18.07,45.86,23.94,2
2213545,-0.01,-1.0,-0.05,-0.41,-7.32,2.55,18.07,45.86,23.94,2
2213557,-0.01,-1.0,-0.05,0.08,-7.33,2.08,18.07,45.86,23.94,2
2213570,-0.02,-1.0,-0.05,0.42,-7.2,1.94,18.11,45.83,24.06,2
2213580,-0.02,-1.0,-0.05,1.1,-6.97,2.08,18.11,45.83,24.06,2
2213592,-0.02,-1.0,-0.05,1.33,-6.85,2.47,18.11,45.83,24.06,2
2213602,-0.02,-1.0,-0.05,1.51,-6.51,2.76,18.11,45.83,24.06,2
2213612,-0.01,-1.0,-0.05,1.7,-6.06,2.68,18.11,45.83,24.06,2
2213624,-0.01,-1.0,-0.05,1.68,-5.69,1.93,18.15,45.81,24.22,2
2213635,-0.01,-1.01,-0.05,1.35,-5.76,1.68,18.15,45.81,24.22,2
2213647,-0.01,-1.01,-0.05,0.99,-5.86,1.42,18.15,45.81,24.22,2
2213658,-0.01,-1.01,-0.05,0.47,-5.96,1.0,18.15,45.81,24.22,2
2213670,-0.01,-1.01,-0.05,0.12,-6.12,0.98,18.24,45.86,24.06,2
2213681,-0.01,-1.01,-0.05,-0.22,-6.23,1.22,18.24,45.86,24.06,2
2213694,-0.02,-1.0,-0.05,-0.59,-5.62,2.24,18.24,45.86,24.06,2
2213706,-0.02,-1.0,-0.04,-0.54,-5.1,2.77,18.24,45.86,24.06,2
2213716,-0.01,-1.0,-0.04,-0.46,-4.41,3.18,18.24,45.86,24.06,2
2213729,-0.0,-1.0,-0.04,-0.04,-3.65,2.32,18.27,45.83,23.99,2
2213741,-0.0,-1.0,-0.04,0.2,-3.61,1.46,18.27,45.83,23.99,2
2213754,-0.01,-1.01,-0.05,0.47,-3.65,0.62,18.27,45.83,23.99,2
2213766,-0.01,-1.01,-0.05,0.33,-3.63,0.79,18.27,45.83,23.99,2
2213778,-0.01,-1.01,-0.05,-0.52,-3.69,2.15,18.21,45.78,23.95,2
2213789,-0.01,-1.01,-0.05,-1.13,-3.69,3.35,18.21,45.78,23.95,2
2213801,-0.01,-1.01,-0.05,-1.64,-3.61,4.45,18.21,45.78,23.95,2
2213815,-0.0,-1.0,-0.04,-1.64,-3.62,4.61,18.21,45.78,23.95,2
2213826,0.0,-1.0,-0.04,-1.42,-3.74,4.29,18.43,45.77,23.75,2
2213838,-0.0,-1.0,-0.04,-1.13,-4.17,4.54,18.43,45.77,23.75,2
2213850,-0.0,-1.0,-0.04,-0.95,-4.2,4.74,18.43,45.77,23.75,2
2213861,0.0,-1.0,-0.04,-0.63,-4.33,4.37,18.43,45.77,23.75,2
2213874,0.01,-1.0,-0.04,0.01,-4.78,2.7,18.48,45.94,23.34,2
2213886,0.0,-1.01,-0.04,0.16,-5.02,2.34,18.48,45.94,23.34,2
2213899,0.0,-1.01,-0.04,0.06,-5.32,3.17,18.48,45.94,23.34,2
2213910,-0.0,-1.01,-0.04,-0.16,-5.24,3.97,18.48,45.94,23.34,2
2213921,0.0,-1.01,-0.04,-0.3,-5.07,4.32,18.64,46.1,23.39,2
2213931,0.01,-1.01,-0.04,-0.25,-4.84,4.24,18.64,46.1,23.39,2
2213943,0.01,-1.01,-0.04,-0.1,-4.95,3.81,18.64,46.1,23.39,2
2213953,0.01,-1.01,-0.03,-0.16,-5.28,3.97,18.64,46.1,23.39,2
2213965,0.01,-1.0,-0.03,-0.15,-5.25,3.79,18.64,46.1,23.39,2
2213977,0.01,-1.0,-0.03,0.71,-4.61,1.53,18.9,46.07,23.46,2
2213988,0.01,-1.0,-0.03,1.17,-4.48,0.44,18.9,46.07,23.46,2
2213999,0.01,-1.01,-0.03,1.38,-4.34,-0.06,18.9,46.07,23.46,2
2214010,0.01,-1.01,-0.03,1.45,-3.78,-0.19,18.9,46.07,23.46,2
2214022,0.01,-1.01,-0.03,1.46,-3.36,-0.14,19.12,46.23,23.37,2
2214034,0.01,-1.0,-0.03,1.49,-3.07,-0.04,19.12,46.23,23.37,2
2214046,0.01,-1.0,-0.03,1.93,-2.68,-0.01,19.12,46.23,23.37,2
2214057,0.01,-1.0,-0.03,2.39,-2.57,-0.26,19.12,46.23,23.37,2
2214068,0.01,-1.0,-0.03,3.15,-2.49,-0.93,19.12,46.23,23.37,2
2214081,0.01,-1.0,-0.03,5.01,-2.29,-2.79,19.18,46.31,23.32,2
2214092,0.01,-1.01,-0.03,5.68,-2.03,-3.24,19.18,46.31,23.32,2
2214106,-0.0,-1.01,-0.04,6.02,-1.4,-2.84,19.18,46.31,23.32,2
2214119,-0.0,-1.01,-0.05,5.65,-1.09,-2.35,19.29,46.31,23.37,2
2214129,-0.01,-1.01,-0.05,4.97,-0.65,-1.53,19.29,46.31,23.37,2
2214141,-0.0,-1.01,-0.05,3.24,0.08,-0.14,19.29,46.31,23.37,2
2214151,0.0,-1.01,-0.05,2.61,0.08,-0.07,19.29,46.31,23.37,2
2214162,0.0,-1.01,-0.04,2.08,-0.06,0.08,19.29,46.31,23.37,2
2214175,0.0,-1.0,-0.04,1.64,-0.49,0.64,19.34,46.23,23.4,2
2214186,0.01,-1.0,-0.04,1.77,-0.67,0.47,19.34,46.23,23.4,2
2214197,0.01,-1.01,-0.04,1.97,-0.94,0.07,19.34,46.23,23.4,2
2214208,0.01,-1.01,-0.04,2.2,-1.61,-0.24,19.34,46.23,23.4,2
2214220,-0.0,-1.0,-0.04,2.15,-1.74,-0.17,19.36,46.18,23.29,2
2214230,-0.0,-1.0,-0.04,2.12,-1.56,-0.36,19.36,46.18,23.29,2
2214243,0.0,-1.01,-0.04,2.25,-1.22,-0.96,19.36,46.18,23.29,2
2214254,0.0,-1.01,-0.04,2.28,-1.2,-0.93,19.36,46.18,23.29,2
2214264,0.0,-1.01,-0.04,2.38,-1.24,-0.98,19.36,46.18,23.29,2
2214275,0.0,-1.0,-0.04,2.5,-1.35,-1.14,19.42,46.15,23.2,2
2214287,-0.0,-1.0,-0.04,2.66,-1.44,-1.22,19.42,46.15,23.2,2
2214298,-0.0,-1.01,-0.04,2.72,-1.28,-0.96,19.42,46.15,23.2,2
2214309,-0.0,-1.01,-0.04,2.68,-1.09,-0.59,19.42,46.15,23.2,2
2214322,-0.0,-1.01,-0.04,2.46,-0.74,0.68,19.39,46.16,23.42,2
2214332,-0.0,-1.01,-0.04,2.5,-0.46,1.19,19.39,46.16,23.42,2
2214342,0.0,-1.0,-0.04,2.64,-0.13,1.43,19.39,46.16,23.42,2
2214355,0.01,-1.0,-0.04,3.37,0.57,0.85,19.39,46.16,23.42,2
2214366,0.01,-1.0,-0.04,3.85,0.7,0.24,19.39,46.16,23.42,2
2214377,0.01,-1.01,-0.04,4.21,0.75,-0.11,19.37,46.05,23.43,2
2214389,-0.0,-1.0,-0.05,4.36,1.06,-0.13,19.37,46.05,23.43,2
2214400,0.0,-1.0,-0.05,4.47,1.24,-0.42,19.37,46.05,23.43,2
2214410,0.0,-1.0,-0.05,4.63,1.34,-0.76,19.37,46.05,23.43,2
2214421,0.0,-1.01,-0.05,4.69,1.26,-1.01,19.4,46.02,23.31,2
2214433,0.0,-1.01,-0.05,4.66,0.92,-1.21,19.4,46.02,23.31,2
2214443,-0.0,-1.01,-0.05,4.5,0.88,-1.01,19.4,46.02,23.31,2
2214453,-0.01,-1.01,-0.05,4.25,0.86,-0.6,19.4,46.02,23.31,2
2214465,-0.01,-1.01,-0.05,3.98,1.42,-0.07,19.4,46.02,23.31,2
2214477,0.01,-1.0,-0.05,4.18,1.51,-0.58,19.41,45.89,23.62,2
2214489,0.01,-1.0,-0.05,4.63,1.28,-1.79,19.41,45.89,23.62,2
2214501,0.0,-1.01,-0.06,5.51,0.67,-4.12,19.41,45.89,23.62,2
2214512,-0.01,-1.01,-0.06,5.61,0.33,-4.65,19.41,45.89,23.62,2
2214523,-0.01,-1.01,-0.06,5.32,0.0,-4.4,19.36,45.82,23.73,2
2214535,-0.01,-1.01,-0.06,3.86,-0.68,-2.31,19.36,45.82,23.73,2
2214546,-0.01,-1.01,-0.06,3.09,-1.08,-1.53,19.36,45.82,23.73,2
2214556,-0.0,-1.01,-0.06,2.68,-1.48,-1.48,19.36,45.82,23.73,2
2214566,-0.0,-1.01,-0.06,2.54,-1.78,-1.62,19.36,45.82,23.73,2
2214579,-0.01,-1.01,-0.06,2.25,-2.05,-1.46,19.42,45.76,23.81,2
2214589,-0.01,-1.01,-0.06,1.89,-2.05,-1.1,19.42,45.76,23.81,2
2214599,-0.01,-1.0,-0.06,1.51,-2.0,-1.06,19.42,45.76,23.81,2
2214609,-0.01,-1.0,-0.06,1.23,-2.02,-1.39,19.42,45.76,23.81,2
2214622,-0.0,-1.0,-0.06,0.81,-2.5,-2.28,19.33,45.77,23.78,2
2214632,-0.0,-1.0,-0.06,0.72,-2.77,-2.97,19.33,45.77,23.78,2
2214643,-0.01,-1.0,-0.06,0.74,-3.08,-3.58,19.33,45.77,23.78,2
2214655,-0.02,-1.01,-0.06,0.94,-3.35,-3.88,19.33,45.77,23.78,2
2214668,-0.02,-1.01,-0.06,0.53,-3.44,-3.06,19.32,45.7,23.85,2
2214682,-0.01,-1.01,-0.05,-0.11,-3.77,-1.67,19.32,45.7,23.85,2
2214693,-0.01,-1.0,-0.05,-0.01,-3.96,-2.03,19.32,45.7,23.85,2
2214704,-0.01,-1.0,-0.05,0.24,-4.23,-2.57,19.32,45.7,23.85,2
2214716,-0.01,-1.01,-0.05,0.44,-4.65,-2.73,19.32,45.7,23.85,2
2214727,-0.02,-1.0,-0.05,0.29,-4.57,-2.52,19.21,45.81,23.79,2
2214738,-0.02,-1.0,-0.06,0.19,-4.38,-2.7,19.21,45.81,23.79,2
2214751,-0.02,-1.0,-0.05,0.28,-4.69,-5.27,19.21,45.81,23.79,2
2214761,-0.02,-1.01,-0.06,0.19,-4.77,-6.05,19.21,45.81,23.79,2
2214772,-0.03,-1.01,-0.06,-0.05,-4.72,-5.83,19.21,45.73,23.71,2
2214783,-0.03,-1.01,-0.06,-0.75,-4.5,-4.03,19.21,45.73,23.71,2
2214794,-0.02,-1.01,-0.05,-1.11,-4.39,-2.84,19.21,45.73,23.71,2
2214806,-0.02,-1.01,-0.05,-1.49,-4.39,-1.58,19.21,45.73,23.71,2
2214818,-0.02,-1.01,-0.05,-1.76,-4.1,0.07,19.15,45.75,23.92,2
2214830,-0.02,-1.01,-0.04,-1.6,-3.71,0.5,19.15,45.75,23.92,2
2214840,-0.02,-1.01,-0.04,-1.37,-3.24,0.95,19.15,45.75,23.92,2
2214853,-0.02,-1.0,-0.04,-0.78,-2.38,1.34,19.15,45.75,23.92,2
2214865,-0.02,-1.0,-0.04,-0.3,-2.11,0.76,19.15,45.75,23.92,2
2214877,-0.02,-1.0,-0.05,0.46,-2.04,-0.72,19.19,45.73,23.99,2
2214888,-0.02,-1.0,-0.05,0.69,-2.32,-1.5,19.19,45.73,23.99,2
2214900,-0.02,-1.01,-0.05,0.85,-2.56,-2.09,19.19,45.73,23.99,2
2214914,-0.03,-1.01,-0.05,0.5,-2.75,-1.99,19.19,45.73,23.99,2
2214925,-0.03,-1.01,-0.05,-0.04,-2.67,-1.27,19.15,45.79,23.81,2
2214938,-0.03,-1.01,-0.05,-1.0,-2.1,-0.24,19.15,45.79,23.81,2
2214949,-0.02,-1.01,-0.04,-1.2,-2.0,-0.14,19.15,45.79,23.81,2
2214960,-0.02,-1.01,-0.04,-1.35,-1.97,0.1,19.15,45.79,23.81,2
2214974,-0.03,-1.01,-0.04,-1.55,-1.81,1.43,19.14,45.81,23.89,2
2214984,-0.03,-1.0,-0.04,-1.57,-1.55,2.07,19.14,45.81,23.89,2
2214995,-0.03,-1.0,-0.04,-1.48,-1.27,2.37,19.14,45.81,23.89,2
2215007,-0.02,-1.0,-0.04,-0.95,-1.08,2.02,19.14,45.81,23.89,2
2215019,-0.02,-1.0,-0.04,-0.68,-1.26,1.51,18.99,45.89,23.71,2
2215029,-0.02,-1.0,-0.04,-0.37,-1.37,0.85,18.99,45.89,23.71,2
2215042,-0.02,-1.0,-0.04,0.19,-1.45,-0.29,18.99,45.89,23.71,2
2215053,-0.02,-1.01,-0.04,0.27,-1.6,-0.63,18.99,45.89,23.71,2
2215063,-0.02,-1.01,-0.04,0.22,-1.71,-0.84,18.99,45.89,23.71,2
2215075,-0.02,-1.01,-0.04,0.03,-1.87,-0.86,18.89,46.0,23.7,2
2215086,-0.02,-1.01,-0.04,-0.09,-1.86,-0.59,18.89,46.0,23.7,2
2215096,-0.03,-1.0,-0.04,-0.13,-1.74,-0.15,18.89,46.0,23.7,2
2215107,-0.02,-1.0,-0.03,0.08,-1.46,0.02,18.89,46.0,23.7,2
2215120,-0.01,-1.0,-0.03,1.09,-1.27,-1.25,18.79,46.08,23.76,2
2215132,-0.01,-1.0,-0.03,1.87,-1.34,-3.04,18.79,46.08,23.76,2
2215146,-0.02,-1.0,-0.03,3.61,-1.51,-7.18,18.79,46.08,23.76,2
2215157,-0.03,-1.01,-0.04,3.96,-1.54,-8.18,18.79,46.08,23.76,2
2215169,-0.04,-1.01,-0.04,3.32,-1.1,-7.24,18.7,46.13,23.56,2
2215180,-0.04,-1.01,-0.04,2.7,-0.46,-6.1,18.7,46.13,23.56,2
2215192,-0.04,-1.01,-0.04,2.12,0.41,-5.28,18.7,46.13,23.56,2
2215206,-0.02,-1.0,-0.03,2.22,1.37,-5.74,18.7,46.13,23.56,2
2215217,-0.02,-1.0,-0.03,2.74,1.53,-6.69,18.67,46.23,23.42,2
2215227,-0.03,-1.0,-0.03,3.43,1.63,-7.49,18.67,46.23,23.42,2
2215237,-0.03,-1.0,-0.03,4.2,1.72,-7.9,18.67,46.23,23.42,2
2215249,-0.05,-1.01,-0.04,4.98,1.94,-6.96,18.67,46.23,23.42,2
2215259,-0.05,-1.01,-0.05,4.88,1.9,-6.22,18.67,46.23,23.42,2
2215270,-0.05,-1.01,-0.05,4.59,1.94,-5.67,18.57,46.33,23.26,2
2215280,-0.05,-1.01,-0.05,4.19,2.04,-5.2,18.57,46.33,23.26,2
2215292,-0.05,-1.0,-0.04,3.5,2.48,-4.52,18.57,46.33,23.26,2
2215302,-0.05,-1.0,-0.04,3.46,2.73,-4.48,18.57,46.33,23.26,2
2215312,-0.04,-1.0,-0.04,3.66,2.71,-4.74,18.57,46.33,23.26,2
2215324,-0.04,-1.0,-0.04,4.18,2.07,-5.4,18.43,46.37,23.18,2
2215335,-0.06,-1.0,-0.05,4.35,1.83,-5.37,18.43,46.37,23.18,2
2215345,-0.06,-1.0,-0.05,4.35,1.75,-5.17,18.43,46.37,23.18,2
2215355,-0.06,-1.0,-0.05,4.26,1.71,-4.89,18.43,46.37,23.18,2
2215365,-0.06,-1.01,-0.05,4.09,1.73,-4.44,18.43,46.37,23.18,2
2215378,-0.06,-1.0,-0.05,3.6,1.57,-3.15,18.29,46.44,23.34,2
2215388,-0.06,-1.0,-0.05,3.4,1.51,-2.74,18.29,46.44,23.34,2
2215398,-0.06,-1.0,-0.05,3.27,1.51,-2.63,18.29,46.44,23.34,2
2215408,-0.06,-1.0,-0.05,3.18,1.46,-2.66,18.29,46.44,23.34,2
2215421,-0.06,-1.0,-0.05,3.31,0.97,-3.0,18.15,46.43,23.52,2
2215431,-0.06,-1.0,-0.05,3.37,0.73,-2.93,18.15,46.43,23.52,2
2215442,-0.06,-1.01,-0.05,3.3,0.52,-2.65,18.15,46.43,23.52,2
2215454,-0.07,-1.0,-0.05,2.9,0.09,-2.05,18.15,46.43,23.52,2
2215467,-0.07,-1.0,-0.05,2.64,-0.04,-1.76,17.98,46.48,23.6,2
2215480,-0.07,-1.0,-0.05,1.89,-0.16,-0.75,17.98,46.48,23.6,2
2215492,-0.07,-1.0,-0.05,1.51,-0.11,-0.15,17.98,46.48,23.6,2
2215506,-0.07,-1.01,-0.05,0.95,-0.18,1.57,17.98,46.48,23.6,2
2215517,-0.06,-1.01,-0.05,0.68,-0.33,2.52,17.92,46.49,23.48,2
2215527,-0.06,-1.0,-0.05,0.41,-0.54,3.33,17.92,46.49,23.48,2
2215537,-0.06,-1.0,-0.05,0.32,-0.74,3.57,17.92,46.49,23.48,2
2215549,-0.06,-1.0,-0.05,0.84,-1.06,2.24,17.92,46.49,23.48,2
2215559,-0.06,-1.0,-0.05,1.11,-1.21,1.58,17.92,46.49,23.48,2
2215570,-0.06,-1.0,-0.05,1.38,-1.27,0.99,17.81,46.5,23.71,2
2215580,-0.06,-1.0,-0.05,1.63,-1.18,0.5,17.81,46.5,23.71,2
2215592,-0.06,-1.0,-0.05,1.67,-1.1,-0.42,17.81,46.5,23.71,2
2215602,-0.06,-1.0,-0.05,1.6,-1.16,-0.49,17.81,46.5,23.71,2
2215612,-0.06,-1.01,-0.05,1.34,-1.14,-0.1,17.81,46.5,23.71,2
2215623,-0.07,-1.0,-0.05,0.98,-1.07,0.76,17.78,46.46,23.65,2
2215635,-0.06,-1.0,-0.05,0.46,-1.06,1.53,17.78,46.46,23.65,2
2215646,-0.06,-1.0,-0.05,0.59,-1.08,0.91,17.78,46.46,23.65,2
2215659,-0.05,-1.0,-0.05,1.06,-1.25,-0.4,17.78,46.46,23.65,2
2215671,-0.06,-1.0,-0.05,1.33,-1.31,-0.79,17.71,46.5,23.77,2
2215683,-0.06,-1.01,-0.05,1.46,-1.4,-0.96,17.71,46.5,23.77,2
2215695,-0.07,-1.01,-0.05,0.97,-1.55,-0.33,17.71,46.5,23.77,2
2215705,-0.07,-1.01,-0.05,0.39,-1.57,0.51,17.71,46.5,23.77,2
2215715,-0.07,-1.01,-0.05,-0.22,-1.52,1.49,17.71,46.5,23.77,2
2215726,-0.07,-1.0,-0.05,-0.7,-1.36,2.32,17.59,46.52,23.77,2
2215738,-0.06,-1.0,-0.04,-1.26,-0.67,3.92,17.59,46.52,23.77,2
2215748,-0.06,-1.0,-0.04,-1.14,-0.29,4.59,17.59,46.52,23.77,2
2215759,-0.05,-1.0,-0.04,-0.62,-0.06,4.47,17.59,46.52,23.77,2
2215772,-0.04,-1.0,-0.04,1.36,-0.01,1.5,17.6,46.49,23.81,2
2215784,-0.04,-1.0,-0.04,2.34,-0.16,-0.16,17.6,46.49,23.81,2
2215798,-0.06,-1.01,-0.05,3.1,-0.3,-1.21,17.6,46.49,23.81,2
2215808,-0.07,-1.01,-0.05,2.82,-0.18,-0.55,17.6,46.49,23.81,2
2215819,-0.07,-1.01,-0.05,2.17,0.07,0.55,17.62,46.37,23.48,2
2215832,-0.05,-1.0,-0.05,1.1,0.38,1.72,17.62,46.37,23.48,2
2215843,-0.05,-1.0,-0.04,1.07,0.21,1.2,17.62,46.37,23.48,2
2215856,-0.05,-1.0,-0.04,1.45,-0.5,0.69,17.62,46.37,23.48,2
2215868,-0.06,-1.0,-0.05,1.52,-0.71,1.36,17.55,46.32,23.44,2
2215879,-0.06,-1.0,-0.05,1.43,-0.81,2.54,17.55,46.32,23.44,2
2215891,-0.06,-1.0,-0.05,0.85,-1.24,4.63,17.55,46.32,23.44,2
2215902,-0.05,-1.0,-0.05,0.6,-1.44,5.04,17.55,46.32,23.44,2
2215912,-0.05,-1.0,-0.05,0.47,-1.58,4.91,17.55,46.32,23.44,2
2215923,-0.05,-1.0,-0.05,0.38,-1.8,4.34,17.72,46.42,23.39,2
2215934,-0.05,-1.0,-0.05,-0.02,-2.22,3.37,17.72,46.42,23.39,2
2215945,-0.05,-1.0,-0.05,-0.26,-2.52,3.42,17.72,46.42,23.39,2
2215955,-0.05,-1.01,-0.05,-0.51,-2.8,3.77,17.72,46.42,23.39,2
2215966,-0.05,-1.01,-0.05,-0.83,-2.98,4.45,17.8,46.47,23.18,2
2215978,-0.06,-1.01,-0.04,-1.59,-3.13,6.39,17.8,46.47,23.18,2
2215989,-0.05,-1.01,-0.04,-1.86,-2.93,7.16,17.8,46.47,23.18,2
2216000,-0.05,-1.0,-0.04,-2.02,-2.73,7.82,17.8,46.47,23.18,2
2216011,-0.04,-1.0,-0.04,-2.12,-2.18,8.04,17.8,46.47,23.18,2
2216023,-0.04,-1.0,-0.04,-1.94,-1.88,7.4,17.9,46.35,23.41,2
2216034,-0.03,-1.0,-0.04,-1.56,-1.64,6.33,17.9,46.35,23.41,2
2216047,-0.03,-1.0,-0.03,-0.54,-1.64,3.67,17.9,46.35,23.41,2
2216057,-0.03,-1.0,-0.03,-0.04,-1.75,2.54,17.9,46.35,23.41,2
2216068,-0.03,-1.0,-0.04,0.33,-1.78,1.77,17.98,46.44,23.35,2
2216078,-0.04,-1.0,-0.04,0.55,-1.55,1.42,17.98,46.44,23.35,2
2216090,-0.04,-1.01,-0.04,0.57,-0.76,1.3,17.98,46.44,23.35,2
2216100,-0.04,-1.01,-0.04,0.55,-0.53,1.34,17.98,46.44,23.35,2
2216110,-0.03,-1.0,-0.03,0.59,-0.45,1.23,17.98,46.44,23.35,2
2216121,-0.03,-1.0,-0.03,0.72,-0.46,1.1,18.16,46.44,23.28,2
2216133,-0.03,-1.0,-0.03,0.96,-0.66,1.09,18.16,46.44,23.28,2
2216143,-0.03,-1.0,-0.03,1.02,-0.77,1.21,18.16,46.44,23.28,2
2216153,-0.03,-1.0,-0.03,1.1,-0.79,1.2,18.16,46.44,23.28,2
2216163,-0.03,-1.0,-0.03,1.17,-0.72,0.87,18.16,46.44,23.28,2
2216176,-0.04,-1.01,-0.04,1.11,-0.6,0.78,18.28,46.51,23.27,2
2216187,-0.04,-1.01,-0.04,0.86,-0.47,1.43,18.28,46.51,23.27,2
2216200,-0.04,-1.01,-0.04,0.25,-0.12,3.79,18.28,46.51,23.27,2
2216211,-0.04,-1.01,-0.03,-0.03,0.03,5.11,18.28,46.51,23.27,2
2216222,-0.04,-1.01,-0.03,-0.27,0.14,6.47,18.27,46.47,23.26,2
2216232,-0.03,-1.0,-0.03,-0.34,0.11,7.29,18.27,46.47,23.26,2
2216243,-0.03,-1.0,-0.03,0.41,-0.36,6.1,18.27,46.47,23.26,2
2216254,-0.03,-1.01,-0.03,0.65,-0.75,5.48,18.27,46.47,23.26,2
2216264,-0.03,-1.01,-0.04,0.56,-1.02,5.63,18.27,46.47,23.26,2
2216275,-0.04,-1.01,-0.04,0.29,-1.14,6.44,18.45,46.47,23.41,2
2216286,-0.03,-1.01,-0.04,-0.72,-1.01,8.75,18.45,46.47,23.41,2
2216297,-0.02,-1.0,-0.03,-1.19,-0.83,9.61,18.45,46.47,23.41,2
2216307,-0.02,-1.0,-0.03,-1.23,-0.71,9.28,18.45,46.47,23.41,2
2216318,-0.01,-1.0,-0.03,-0.85,-0.62,8.11,18.54,46.4,23.32,2
2216329,-0.01,-1.0,-0.03,0.12,-0.4,6.06,18.54,46.4,23.32,2
2216340,-0.01,-1.0,-0.03,0.43,-0.12,5.68,18.54,46.4,23.32,2
2216350,-0.01,-1.0,-0.03,0.65,0.26,5.62,18.54,46.4,23.32,2
2216361,-0.01,-1.0,-0.03,0.81,0.71,5.66,18.54,46.4,23.32,2
2216374,-0.0,-1.0,-0.03,1.13,1.45,5.36,18.61,46.44,23.33,2
2216384,0.0,-1.0,-0.02,1.43,1.52,4.72,18.61,46.44,23.33,2
2216395,0.0,-1.0,-0.02,1.87,1.5,3.76,18.61,46.44,23.33,2
2216406,0.0,-1.0,-0.02,2.78,1.22,1.79,18.61,46.44,23.33,2
2216418,-0.01,-1.01,-0.03,2.99,1.16,1.23,18.84,46.39,23.13,2
2216429,-0.01,-1.01,-0.03,2.99,1.18,0.99,18.84,46.39,23.13,2
2216440,-0.01,-1.01,-0.03,2.55,1.33,0.78,18.84,46.39,23.13,2
2216451,-0.01,-1.01,-0.03,2.25,1.36,0.48,18.84,46.39,23.13,2
2216461,-0.01,-1.01,-0.03,1.99,1.28,0.09,18.84,46.39,23.13,2
2216471,-0.01,-1.01,-0.03,1.75,1.12,-0.2,19.01,46.42,22.94,2
2216485,-0.01,-1.01,-0.03,1.44,0.75,-0.47,19.01,46.42,22.94,2
2216497,-0.01,-1.01,-0.03,1.43,0.52,-0.47,19.01,46.42,22.94,2
2216507,-0.01,-1.01,-0.03,1.43,0.33,-0.4,19.01,46.42,22.94,2
2216520,-0.01,-1.01,-0.03,1.38,0.04,-0.07,19.08,46.5,23.05,2
2216530,-0.01,-1.01,-0.03,1.33,-0.12,0.13,19.08,46.5,23.05,2
2216540,-0.01,-1.01,-0.03,1.2,-0.28,0.44,19.08,46.5,23.05,2
2216550,-0.01,-1.01,-0.03,1.02,-0.46,0.91,19.08,46.5,23.05,2
2216561,-0.01,-1.01,-0.03,0.56,-1.05,1.67,19.08,46.5,23.05,2
2216573,-0.01,-1.01,-0.03,0.42,-1.46,1.84,19.05,46.52,23.2,2
2216583,-0.01,-1.01,-0.03,0.21,-1.81,2.27,19.05,46.52,23.2,2
2216593,-0.01,-1.01,-0.03,-0.07,-2.09,2.91,19.05,46.52,23.2,2
2216605,-0.01,-1.0,-0.03,-0.5,-2.5,3.85,19.05,46.52,23.2,2
2216616,-0.01,-1.01,-0.03,-0.66,-2.61,4.2,19.08,46.56,23.36,2
2216626,-0.0,-1.01,-0.03,-0.88,-2.61,4.72,19.08,46.56,23.36,2
2216636,-0.0,-1.0,-0.02,-1.15,-2.67,5.35,19.08,46.56,23.36,2
2216648,0.0,-1.01,-0.02,-0.89,-2.82,5.17,19.08,46.56,23.36,2
2216659,0.01,-1.01,-0.02,-0.6,-2.94,4.54,19.08,46.56,23.36,2
2216670,0.0,-1.0,-0.02,-0.35,-3.09,4.06,19.21,46.6,23.44,2
2216682,0.0,-1.01,-0.02,0.08,-3.07,3.74,19.21,46.6,23.44,2
2216694,-0.0,-1.01,-0.02,0.12,-2.9,3.82,19.21,46.6,23.44,2
2216706,-0.0,-1.0,-0.02,0.09,-2.28,3.9,19.21,46.6,23.44,2
2216718,0.0,-1.01,-0.02,0.17,-2.25,4.03,19.32,46.58,23.33,2
2216730,0.0,-1.01,-0.02,0.13,-2.04,4.5,19.32,46.58,23.33,2
2216741,0.0,-1.01,-0.02,0.18,-1.24,4.05,19.32,46.58,23.33,2
2216751,0.01,-1.01,-0.02,0.31,-0.91,3.57,19.32,46.58,23.33,2
2216764,0.01,-1.01,-0.02,0.3,-0.63,3.38,19.39,46.5,23.35,2
2216775,0.01,-1.0,-0.02,0.32,-0.01,3.2,19.39,46.5,23.35,2
2216786,0.01,-1.01,-0.02,0.45,0.22,2.96,19.39,46.5,23.35,2
2216796,0.01,-1.0,-0.02,0.58,0.25,2.74,19.39,46.5,23.35,2
2216807,0.01,-1.0,-0.02,0.76,0.2,2.49,19.39,46.5,23.35,2
2216820,0.01,-1.0,-0.02,1.16,0.22,2.33,19.46,46.52,23.15,2
2216830,0.01,-1.0,-0.02,1.31,0.29,2.1,19.46,46.52,23.15,2
2216841,0.01,-1.01,-0.02,1.32,0.28,1.93,19.46,46.52,23.15,2
2216854,0.01,-1.01,-0.02,0.95,0.53,2.74,19.46,46.52,23.15,2
2216865,0.01,-1.01,-0.02,0.7,0.65,3.25,19.58,46.39,23.12,2
2216877,0.01,-1.01,-0.02,0.44,0.72,3.89,19.58,46.39,23.12,2
2216889,0.02,-1.0,-0.02,0.25,0.0,5.38,19.58,46.39,23.12,2
2216900,0.02,-1.0,-0.01,0.46,-0.55,6.08,19.58,46.39,23.12,2
2216912,0.02,-1.0,-0.01,1.22,-1.08,6.2,19.58,46.39,23.12,2
2216924,0.01,-1.01,-0.02,1.56,-1.19,6.18,19.59,46.27,23.1,2
2216936,0.01,-1.01,-0.02,1.65,-1.27,6.61,19.59,46.27,23.1,2
2216947,0.01,-1.01,-0.02,1.32,-0.93,8.51,19.59,46.27,23.1,2
2216958,0.01,-1.0,-0.01,2.68,-1.57,9.4,19.59,46.27,23.1,2
2216968,0.02,-1.01,-0.02,5.67,-3.11,10.22,19.76,46.28,23.0,2
2216981,0.03,-1.01,-0.02,6.06,-3.14,10.56,19.76,46.28,23.0,2
2216992,0.04,-1.0,-0.02,6.78,-2.95,8.6,19.76,46.28,23.0,2
2217003,0.04,-1.0,-0.02,7.72,-2.57,5.84,19.76,46.28,23.0,2
2217014,0.04,-1.01,-0.02,8.27,-2.24,3.61,19.91,46.23,22.93,2
2217026,0.04,-1.01,-0.03,7.72,-1.8,2.47,19.91,46.23,22.93,2
2217038,0.03,-1.01,-0.03,7.12,-1.63,2.41,19.91,46.23,22.93,2
2217051,0.04,-1.01,-0.03,5.95,-1.74,2.87,19.91,46.23,22.93,2
2217064,0.04,-1.01,-0.03,5.1,-1.83,3.18,20.06,46.22,23.13,2
2217077,0.03,-1.01,-0.04,3.24,-1.85,3.44,20.06,46.22,23.13,2
2217089,0.03,-1.01,-0.04,2.26,-1.7,3.77,20.06,46.22,23.13,2
2217102,0.03,-1.01,-0.04,0.28,-1.56,5.67,20.06,46.22,23.13,2
2217114,0.03,-1.01,-0.04,-0.75,-1.43,6.83,20.3,46.18,22.97,2
2217125,0.03,-1.01,-0.04,-1.76,-1.23,7.65,20.3,46.18,22.97,2
2217137,0.04,-1.01,-0.03,-3.66,-0.4,7.84,20.3,46.18,22.97,2
2217149,0.05,-1.0,-0.03,-4.36,0.09,7.41,20.3,46.18,22.97,2
2217159,0.05,-1.0,-0.02,-4.62,0.46,6.76,20.3,46.18,22.97,2
2217172,0.06,-1.0,-0.02,-3.97,1.08,5.4,20.49,46.24,23.12,2
2217182,0.06,-1.0,-0.01,-3.21,1.34,4.62,20.49,46.24,23.12,2
2217193,0.06,-1.0,-0.01,-2.28,1.52,3.6,20.49,46.24,23.12,2
2217207,0.06,-1.0,-0.01,-0.28,1.43,1.2,20.49,46.24,23.12,2
2217218,0.06,-1.0,-0.02,0.32,1.45,-0.1,20.64,46.28,22.88,2
2217228,0.06,-1.0,-0.01,0.8,1.37,-1.22,20.64,46.28,22.88,2
2217241,0.05,-1.01,-0.03,1.99,0.44,-3.42,20.64,46.28,22.88,2
2217253,0.03,-1.01,-0.03,1.04,0.33,-3.45,20.64,46.28,22.88,2
2217264,0.03,-1.01,-0.04,-0.13,-0.19,-2.5,20.75,46.3,22.92,2
2217275,0.03,-1.01,-0.03,-1.5,-0.83,-0.99,20.75,46.3,22.92,2
2217286,0.04,-1.01,-0.02,-2.91,-1.15,0.28,20.75,46.3,22.92,2
2217297,0.04,-1.01,-0.02,-3.81,-1.53,0.75,20.75,46.3,22.92,2
2217308,0.05,-1.0,-0.01,-4.66,-2.18,0.77,20.75,46.3,22.92,2
2217320,0.05,-1.0,-0.01,-4.84,-2.32,0.84,20.77,46.46,22.87,2
2217330,0.05,-1.0,-0.01,-5.08,-2.24,1.09,20.77,46.46,22.87,2
2217340,0.04,-1.01,-0.01,-5.29,-1.97,1.36,20.77,46.46,22.87,2
2217352,0.04,-1.01,-0.01,-5.51,-1.3,2.25,20.77,46.46,22.87,2
2217365,0.05,-1.0,-0.0,-5.61,-1.08,2.67,20.89,46.48,22.7,2
2217378,0.06,-1.0,0.0,-5.02,-1.22,2.58,20.89,46.48,22.7,2
2217390,0.06,-1.0,0.0,-4.29,-1.42,1.98,20.89,46.48,22.7,2
2217402,0.06,-1.0,0.01,-2.21,-2.05,0.47,20.89,46.48,22.7,2
2217414,0.05,-1.0,0.0,-1.19,-2.19,-0.01,20.96,46.5,22.44,2
2217426,0.05,-1.0,0.0,-0.3,-2.13,-0.39,20.96,46.5,22.44,2
2217438,0.05,-1.0,-0.0,0.62,-1.78,-0.7,20.96,46.5,22.44,2
2217448,0.05,-1.01,-0.0,0.9,-1.74,-0.64,20.96,46.5,22.44,2
2217458,0.05,-1.0,-0.0,1.19,-1.64,-0.71,20.96,46.5,22.44,2
2217469,0.05,-1.0,0.0,1.5,-1.42,-0.81,21.04,46.67,22.41,2
2217481,0.05,-1.0,0.0,1.88,-0.92,-0.4,21.04,46.67,22.41,2
2217491,0.06,-1.0,0.01,2.18,-0.69,-0.49,21.04,46.67,22.41,2
2217501,0.06,-1.0,0.01,2.8,-0.59,-0.96,21.04,46.67,22.41,2
2217513,0.06,-1.0,0.01,3.65,-0.75,-1.64,21.05,46.68,22.26,2
2217524,0.05,-1.0,0.0,4.43,-0.92,-2.28,21.05,46.68,22.26,2
2217535,0.04,-1.01,-0.0,5.04,-0.88,-2.51,21.05,46.68,22.26,2
2217546,0.04,-1.01,-0.01,5.01,-0.82,-2.32,21.05,46.68,22.26,2
2217557,0.04,-1.01,-0.01,4.17,-0.61,-1.19,21.05,46.68,22.26,2
2217569,0.04,-1.01,-0.01,3.57,-0.63,-0.62,20.89,46.71,22.43,2
2217579,0.04,-1.01,-0.01,3.01,-0.72,-0.09,20.89,46.71,22.43,2
2217589,0.04,-1.0,-0.01,2.58,-0.72,0.32,20.89,46.71,22.43,2
2217600,0.04,-1.0,-0.0,2.67,-0.54,0.36,20.89,46.71,22.43,2
2217611,0.05,-1.0,0.0,3.17,-0.53,-0.15,20.89,46.71,22.43,2
2217622,0.05,-1.0,0.0,3.88,-0.66,-0.64,20.94,46.73,22.22,2
2217635,0.05,-1.0,-0.0,4.99,-0.79,-1.28,20.94,46.73,22.22,2
2217647,0.04,-1.01,-0.01,5.12,-0.79,-1.3,20.94,46.73,22.22,2
2217659,0.04,-1.01,-0.01,4.34,-0.49,0.07,20.94,46.73,22.22,2
2217671,0.03,-1.01,-0.02,3.49,-0.24,1.19,20.86,46.78,22.16,2
2217683,0.04,-1.01,-0.01,2.69,0.06,2.05,20.86,46.78,22.16,2
2217694,0.05,-1.01,-0.01,2.59,0.36,2.13,20.86,46.78,22.16,2
2217705,0.06,-1.0,-0.0,3.34,0.22,1.3,20.86,46.78,22.16,2
2217715,0.06,-1.0,-0.0,4.5,-0.16,0.34,20.84,46.79,22.23,2
2217727,0.05,-1.0,-0.0,5.67,-0.56,-0.37,20.84,46.79,22.23,2
2217739,0.04,-1.01,-0.01,7.03,-0.68,-0.94,20.84,46.79,22.23,2
2217751,0.04,-1.01,-0.02,7.04,-0.57,-0.58,20.84,46.79,22.23,2
2217765,0.04,-1.0,-0.02,6.6,-0.57,0.26,20.76,46.77,22.12,2
2217777,0.05,-1.0,-0.02,6.64,-0.67,0.27,20.76,46.77,22.12,2
2217791,0.05,-1.0,-0.02,6.89,-0.99,-0.09,20.76,46.77,22.12,2
2217801,0.04,-1.0,-0.02,6.99,-1.14,-0.04,20.76,46.77,22.12,2
2217811,0.04,-1.0,-0.02,6.98,-1.07,0.18,20.76,46.77,22.12,2
2217823,0.04,-1.0,-0.02,7.49,-0.8,0.35,20.85,46.59,22.14,2
2217833,0.05,-1.0,-0.02,8.05,-0.65,0.17,20.85,46.59,22.14,2
2217845,0.05,-1.0,-0.02,8.61,-0.68,0.04,20.85,46.59,22.14,2
2217859,0.05,-1.0,-0.02,9.63,-0.66,-0.04,20.85,46.59,22.14,2
2217870,0.05,-1.0,-0.03,9.94,-0.65,-0.26,20.87,46.48,22.25,2
2217883,0.05,-1.0,-0.03,9.56,-0.54,-0.74,20.87,46.48,22.25,2
2217894,0.05,-1.0,-0.04,9.28,-0.41,-1.05,20.87,46.48,22.25,2
2217904,0.05,-1.0,-0.04,9.14,-0.3,-1.4,20.87,46.48,22.25,2
2217915,0.04,-1.01,-0.04,9.07,-0.29,-1.65,20.81,46.39,22.45,2
2217926,0.04,-1.01,-0.04,8.37,-0.29,-1.61,20.81,46.39,22.45,2
2217937,0.04,-1.01,-0.05,7.8,-0.22,-1.28,20.81,46.39,22.45,2
2217947,0.04,-1.01,-0.05,7.15,-0.1,-0.8,20.81,46.39,22.45,2
2217957,0.04,-1.01,-0.05,6.47,0.08,-0.38,20.81,46.39,22.45,2
2217969,0.04,-1.01,-0.05,5.49,0.45,0.14,20.68,46.3,22.65,2
2217980,0.04,-1.01,-0.05,5.06,0.38,0.24,20.68,46.3,22.65,2
2217990,0.04,-1.01,-0.05,4.64,0.17,0.26,20.68,46.3,22.65,2
2218000,0.04,-1.01,-0.05,4.21,-0.09,0.32,20.68,46.3,22.65,2
2218010,0.04,-1.01,-0.05,3.71,-0.41,0.53,20.68,46.3,22.65,2
2218023,0.04,-1.01,-0.05,2.86,-0.84,0.85,20.65,46.11,22.8,2
2218033,0.04,-1.01,-0.05,2.47,-0.84,1.09,20.65,46.11,22.8,2
2218043,0.04,-1.0,-0.05,2.2,-0.74,1.36,20.65,46.11,22.8,2
2218053,0.04,-1.0,-0.05,2.21,-0.58,1.45,20.65,46.11,22.8,2
2218066,0.05,-1.0,-0.04,2.71,-0.35,1.12,20.58,46.1,22.96,2
2218076,0.05,-1.0,-0.04,2.95,-0.48,0.73,20.58,46.1,22.96,2
2218086,0.05,-1.0,-0.05,3.19,-0.67,0.26,20.58,46.1,22.96,2
2218096,0.04,-1.0,-0.05,3.32,-0.82,0.02,20.58,46.1,22.96,2
2218107,0.04,-1.01,-0.05,2.89,-0.8,0.49,20.58,46.1,22.96,2
2218119,0.04,-1.0,-0.05,2.54,-0.62,0.85,20.54,46.05,23.15,2
2218130,0.04,-1.0,-0.05,2.5,-0.44,0.79,20.54,46.05,23.15,2
2218142,0.05,-1.0,-0.04,3.23,-0.24,0.33,20.54,46.05,23.15,2
2218154,0.05,-1.0,-0.04,3.9,-0.28,0.12,20.54,46.05,23.15,2
2218165,0.05,-1.0,-0.05,4.74,-0.32,-0.2,20.43,46.05,23.2,2
2218177,0.05,-1.0,-0.05,6.29,-0.48,-0.91,20.43,46.05,23.2,2
2218187,0.04,-1.0,-0.05,6.75,-0.43,-1.14,20.43,46.05,23.2,2
2218197,0.04,-1.0,-0.05,7.25,-0.35,-1.28,20.43,46.05,23.2,2
2218207,0.04,-1.0,-0.05,7.82,-0.19,-1.4,20.43,46.05,23.2,2
2218220,0.04,-1.0,-0.06,8.53,0.42,-0.96,20.38,46.04,23.39,2
2218230,0.03,-1.0,-0.06,8.68,0.97,-0.44,20.38,46.04,23.39,2
2218240,0.03,-1.0,-0.06,8.77,1.66,0.11,20.38,46.04,23.39,2
2218252,0.03,-1.0,-0.06,9.01,2.75,1.53,20.38,46.04,23.39,2
2218264,0.05,-1.01,-0.07,8.96,2.81,2.22,20.3,45.88,23.7,2
2218275,0.05,-1.01,-0.07,8.68,2.44,2.27,20.3,45.88,23.7,2
2218286,0.06,-1.0,-0.07,8.13,1.36,0.83,20.3,45.88,23.7,2
2218297,0.04,-1.0,-0.07,7.98,1.05,-0.1,20.3,45.88,23.7,2
2218308,0.04,-1.0,-0.07,7.84,0.94,-0.73,20.3,45.88,23.7,2
2218319,0.04,-1.0,-0.07,7.76,0.96,-1.03,20.3,45.79,24.03,2
2218331,0.04,-1.0,-0.07,7.91,1.25,-1.32,20.3,45.79,24.03,2
2218341,0.04,-1.0,-0.07,8.16,1.42,-1.3,20.3,45.79,24.03,2
2218351,0.04,-1.0,-0.08,8.43,1.58,-1.09,20.3,45.79,24.03,2
2218361,0.04,-1.0,-0.08,8.55,1.77,-0.77,20.3,45.79,24.03,2
2218373,0.04,-1.01,-0.09,8.07,1.83,-0.12,20.3,45.67,24.21,2
2218384,0.04,-1.0,-0.09,7.5,1.71,-0.15,20.3,45.67,24.21,2
2218394,0.04,-1.0,-0.09,6.91,1.48,-0.37,20.3,45.67,24.21,2
2218404,0.04,-1.0,-0.09,6.37,1.21,-0.71,20.3,45.67,24.21,2
2218417,0.04,-1.0,-0.09,5.39,0.7,-1.06,20.21,45.51,24.4,2
2218427,0.03,-1.0,-0.09,4.93,0.57,-0.92,20.21,45.51,24.4,2
2218437,0.03,-1.0,-0.09,4.53,0.47,-0.66,20.21,45.51,24.4,2
2218447,0.03,-1.01,-0.09,4.23,0.35,-0.33,20.21,45.51,24.4,2
2218457,0.03,-1.01,-0.09,3.85,0.22,0.08,20.21,45.51,24.4,2
2218470,0.03,-1.0,-0.09,2.89,0.08,1.37,20.17,45.43,24.62,2
2218481,0.03,-1.0,-0.09,2.74,0.25,1.67,20.17,45.43,24.62,2
2218494,0.04,-1.0,-0.09,3.34,0.47,0.88,20.17,45.43,24.62,2
2218505,0.05,-1.0,-0.09,3.73,0.34,0.36,20.17,45.43,24.62,2
2218516,0.05,-1.0,-0.09,4.19,0.09,-0.15,20.13,45.35,24.73,2
2218527,0.05,-1.0,-0.09,5.12,-0.47,-1.58,20.13,45.35,24.73,2
2218538,0.04,-1.0,-0.09,5.41,-0.71,-2.06,20.13,45.35,24.73,2
2218548,0.03,-1.0,-0.1,5.39,-0.91,-2.1,20.13,45.35,24.73,2
2218558,0.03,-1.0,-0.1,5.02,-0.99,-1.78,20.13,45.35,24.73,2
2218570,0.03,-1.0,-0.1,3.74,-0.87,-0.35,20.09,45.29,24.93,2
2218581,0.03,-1.0,-0.1,3.15,-0.7,0.44,20.09,45.29,24.93,2
2218593,0.03,-1.0,-0.1,2.82,-0.59,1.01,20.09,45.29,24.93,2
2218606,0.04,-1.0,-0.09,2.92,-0.46,1.59,20.09,45.29,24.93,2
2218618,0.04,-1.0,-0.09,3.19,-0.6,1.6,20.09,45.14,24.98,2
2218628,0.04,-1.0,-0.09,3.63,-0.82,1.44,20.09,45.14,24.98,2
2218639,0.04,-1.0,-0.09,4.64,-1.42,1.26,20.09,45.14,24.98,2
2218650,0.03,-1.0,-0.1,5.21,-1.88,1.86,20.09,45.14,24.98,2
2218660,0.03,-1.0,-0.1,5.45,-2.16,2.71,20.09,45.14,24.98,2
2218671,0.03,-1.0,-0.1,5.4,-2.24,3.51,20.1,45.11,25.1,2
2218682,0.03,-1.0,-0.1,5.09,-1.96,4.62,20.1,45.11,25.1,2
2218693,0.04,-1.0,-0.1,5.07,-1.89,5.05,20.1,45.11,25.1,2
2218703,0.05,-1.0,-0.1,5.22,-1.7,5.27,20.1,45.11,25.1,2
2218714,0.05,-1.0,-0.1,5.58,-1.5,5.06,20.15,45.11,25.33,2
2218725,0.05,-1.0,-0.1,7.13,-1.16,3.44,20.15,45.11,25.33,2
2218736,0.06,-1.0,-0.1,7.92,-0.97,2.31,20.15,45.11,25.33,2
2218746,0.06,-1.0,-0.1,8.52,-0.8,1.21,20.15,45.11,25.33,2
2218756,0.05,-1.0,-0.11,8.82,-0.64,0.25,20.15,45.11,25.33,2
2218769,0.05,-1.0,-0.11,8.53,-0.33,-0.72,20.19,44.86,25.32,2
2218779,0.05,-1.0,-0.11,8.09,-0.1,-0.94,20.19,44.86,25.32,2
2218789,0.04,-1.0,-0.12,7.62,0.14,-1.12,20.19,44.86,25.32,2
2218799,0.04,-1.0,-0.12,7.15,0.37,-1.15,20.19,44.86,25.32,2
2218809,0.04,-1.0,-0.12,6.72,0.62,-0.85,20.19,44.86,25.32,2
2218822,0.04,-1.0,-0.12,6.11,0.85,-0.44,20.34,44.74,25.42,2
2218832,0.04,-1.0,-0.12,6.0,0.98,-0.68,20.34,44.74,25.42,2
2218842,0.04,-1.0,-0.12,6.06,0.96,-0.96,20.34,44.74,25.42,2
2218852,0.05,-1.0,-0.12,6.23,0.79,-1.17,20.34,44.74,25.42,2
2218865,0.05,-1.0,-0.12,6.56,0.3,-1.74,20.23,44.67,25.43,2
2218875,0.04,-1.0,-0.12,6.74,0.03,-2.2,20.23,44.67,25.43,2
2218885,0.04,-1.0,-0.12,6.72,-0.16,-2.44,20.23,44.67,25.43,2
2218896,0.03,-1.0,-0.13,5.83,-0.56,-1.66,20.23,44.67,25.43,2
2218907,0.02,-1.0,-0.13,5.04,-0.57,-0.77,20.23,44.67,25.43,2
2218918,0.02,-1.0,-0.14,4.13,-0.54,0.14,20.12,44.6,25.59,2
2218932,0.03,-1.0,-0.13,2.11,-0.72,1.83,20.12,44.6,25.59,2
2218942,0.04,-1.0,-0.13,1.27,-0.98,2.37,20.12,44.6,25.59,2
2218952,0.04,-1.0,-0.13,0.5,-1.4,2.33,20.12,44.6,25.59,2
2218963,0.04,-1.0,-0.13,-0.09,-1.77,2.01,20.19,44.6,25.51,2
2218975,0.04,-1.0,-0.13,-0.9,-2.33,1.78,20.19,44.6,25.51,2
2218987,0.04,-1.0,-0.13,-1.24,-2.45,1.95,20.19,44.6,25.51,2
2218997,0.04,-1.0,-0.12,-1.4,-2.51,1.98,20.19,44.6,25.51,2
2219008,0.04,-1.0,-0.12,-0.95,-2.47,1.61,20.19,44.6,25.51,2
2219020,0.05,-1.0,-0.12,-0.43,-2.44,1.42,20.16,44.65,25.6,2
2219032,0.04,-1.0,-0.12,0.08,-2.34,1.21,20.16,44.65,25.6,2
2219044,0.04,-1.0,-0.12,0.68,-1.92,1.09,20.16,44.65,25.6,2
2219054,0.04,-1.0,-0.12,0.72,-1.73,1.25,20.16,44.65,25.6,2
2219065,0.04,-1.0,-0.12,0.51,-1.57,1.41,20.27,44.64,25.87,2
2219075,0.05,-1.0,-0.12,0.28,-1.48,1.39,20.27,44.64,25.87,2
2219087,0.05,-1.0,-0.12,0.14,-1.47,0.83,20.27,44.64,25.87,2
2219098,0.05,-1.0,-0.12,0.16,-1.56,0.77,20.27,44.64,25.87,2
2219113,0.04,-1.0,-0.12,0.25,-1.34,1.2,20.37,44.55,25.84,2
2219125,0.04,-1.0,-0.12,0.26,-1.05,1.35,20.37,44.55,25.84,2
2219135,0.04,-1.0,-0.12,0.34,-0.78,1.23,20.37,44.55,25.84,2
2219147,0.05,-1.0,-0.12,0.7,-0.62,1.05,20.37,44.55,25.84,2
2219157,0.05,-1.0,-0.12,0.92,-0.63,1.04,20.37,44.55,25.84,2
2219168,0.05,-1.0,-0.12,1.28,-0.68,0.85,20.53,44.52,25.58,2
2219178,0.05,-1.0,-0.11,1.75,-0.68,0.46,20.53,44.52,25.58,2
2219190,0.05,-1.0,-0.11,2.6,-0.56,-0.2,20.53,44.52,25.58,2
2219201,0.05,-1.0,-0.12,2.94,-0.49,-0.43,20.53,44.52,25.58,2
2219214,0.05,-1.0,-0.12,3.4,-0.37,-0.81,20.44,44.41,25.6,2
2219225,0.04,-1.0,-0.12,3.46,-0.27,-0.9,20.44,44.41,25.6,2
2219236,0.04,-1.0,-0.12,3.46,-0.12,-0.87,20.44,44.41,25.6,2
2219247,0.04,-1.0,-0.12,3.45,-0.01,-0.66,20.44,44.41,25.6,2
2219259,0.04,-1.0,-0.12,3.46,0.06,-0.17,20.44,44.41,25.6,2
2219270,0.05,-1.0,-0.12,3.5,-0.02,-0.19,20.44,44.33,25.74,2
2219282,0.05,-1.0,-0.12,3.41,-0.3,-0.65,20.44,44.33,25.74,2
2219293,0.04,-1.0,-0.12,3.3,-0.46,-0.65,20.44,44.33,25.74,2
2219304,0.04,-1.0,-0.12,3.15,-0.59,-0.45,20.44,44.33,25.74,2
2219315,0.04,-1.0,-0.12,2.98,-0.61,-0.25,20.46,44.24,25.8,2
2219327,0.04,-1.0,-0.12,2.8,-0.6,0.18,20.46,44.24,25.8,2
2219337,0.04,-1.0,-0.12,2.89,-0.61,0.3,20.46,44.24,25.8,2
2219347,0.05,-1.0,-0.12,3.1,-0.6,0.2,20.46,44.24,25.8,2
2219359,0.05,-1.0,-0.12,3.4,-0.6,-0.06,20.46,44.24,25.8,2
2219372,0.05,-1.0,-0.12,4.16,-0.64,-0.6,20.49,44.17,25.8,2
2219383,0.04,-1.0,-0.12,4.44,-0.56,-0.69,20.49,44.17,25.8,2
2219396,0.04,-1.0,-0.13,5.01,-0.41,-0.56,20.49,44.17,25.8,2
2219407,0.05,-1.0,-0.13,5.21,-0.35,-0.61,20.49,44.17,25.8,2
2219418,0.05,-1.0,-0.13,5.24,-0.34,-0.64,20.44,44.11,25.69,2
2219431,0.04,-1.0,-0.13,5.04,-0.29,-0.35,20.44,44.11,25.69,2
2219442,0.04,-1.0,-0.13,4.83,-0.24,-0.02,20.44,44.11,25.69,2
2219453,0.04,-1.0,-0.13,4.66,-0.13,0.4,20.44,44.11,25.69,2
2219466,0.04,-1.0,-0.13,4.02,-0.22,0.85,20.39,44.17,25.83,2
2219477,0.04,-1.0,-0.13,3.67,-0.28,1.18,20.39,44.17,25.83,2
2219489,0.04,-1.0,-0.13,3.3,-0.34,1.01,20.39,44.17,25.83,2
2219500,0.04,-1.0,-0.13,3.3,-0.4,0.71,20.39,44.17,25.83,2
2219511,0.05,-1.0,-0.13,3.32,-0.53,0.46,20.27,44.14,26.22,2
2219521,0.04,-1.0,-0.13,3.3,-0.69,0.46,20.27,44.14,26.22,2
2219532,0.04,-1.0,-0.13,3.08,-0.97,0.79,20.27,44.14,26.22,2
2219543,0.04,-1.0,-0.14,2.94,-1.14,1.01,20.27,44.14,26.22,2
2219553,0.04,-1.0,-0.14,2.72,-1.28,1.18,20.27,44.14,26.22,2
2219564,0.04,-1.0,-0.14,2.43,-1.35,1.25,20.23,44.06,26.01,2
2219575,0.04,-1.0,-0.14,1.74,-1.44,1.22,20.23,44.06,26.01,2
2219586,0.04,-1.0,-0.14,1.44,-1.51,0.98,20.23,44.06,26.01,2
2219596,0.04,-1.0,-0.14,1.11,-1.61,0.89,20.23,44.06,26.01,2
2219606,0.04,-1.0,-0.14,0.86,-1.68,0.85,20.23,44.06,26.01,2
2219618,0.05,-1.0,-0.13,0.69,-1.71,0.4,20.14,43.89,26.06,2
2219629,0.05,-1.0,-0.13,0.7,-1.76,0.11,20.14,43.89,26.06,2
2219639,0.04,-1.0,-0.13,0.68,-1.81,-0.02,20.14,43.89,26.06,2
2219652,0.04,-1.0,-0.13,0.6,-1.77,-0.39,20.14,43.89,26.06,2
2219664,0.04,-1.0,-0.13,0.76,-1.81,-0.77,20.2,43.84,26.18,2
2219675,0.05,-1.0,-0.13,1.01,-1.88,-1.05,20.2,43.84,26.18,2
2219688,0.04,-1.0,-0.13,1.54,-1.96,-1.12,20.2,43.84,26.18,2
2219698,0.04,-1.0,-0.13,1.64,-1.96,-0.89,20.2,43.84,26.18,2
2219708,0.04,-1.0,-0.14,1.55,-1.97,-0.49,20.2,43.84,26.18,2
2219719,0.04,-1.0,-0.14,1.25,-1.95,0.01,20.17,43.83,26.25,2
2219731,0.04,-1.0,-0.13,0.57,-1.89,0.82,20.17,43.83,26.25,2
2219741,0.04,-1.0,-0.13,0.45,-1.83,0.92,20.17,43.83,26.25,2
2219751,0.05,-1.0,-0.13,0.48,-1.78,0.96,20.17,43.83,26.25,2
2219762,0.05,-1.0,-0.13,0.59,-1.72,0.98,20.13,43.88,26.09,2
2219774,0.05,-1.0,-0.13,1.13,-1.64,0.68,20.13,43.88,26.09,2
2219784,0.05,-1.0,-0.13,1.46,-1.57,0.36,20.13,43.88,26.09,2
2219794,0.05,-1.0,-0.13,1.73,-1.62,0.14,20.13,43.88,26.09,2
2219804,0.05,-1.0,-0.13,1.87,-1.65,0.03,20.13,43.88,26.09,2
2219817,0.04,-1.0,-0.13,1.75,-1.66,0.05,20.1,43.96,26.19,2
2219829,0.04,-1.0,-0.14,1.47,-1.63,0.13,20.1,43.96,26.19,2
2219839,0.04,-1.0,-0.14,1.18,-1.65,0.14,20.1,43.96,26.19,2
2219851,0.04,-1.0,-0.13,0.62,-1.54,0.63,20.1,43.96,26.19,2
2219862,0.04,-1.0,-0.13,0.33,-1.47,1.01,20.12,43.91,26.21,2
2219872,0.04,-1.0,-0.13,0.11,-1.47,1.41,20.12,43.91,26.21,2
2219882,0.05,-1.0,-0.13,-0.05,-1.44,1.74,20.12,43.91,26.21,2
2219894,0.05,-1.0,-0.13,0.02,-1.39,1.9,20.12,43.91,26.21,2
2219904,0.05,-1.0,-0.13,0.18,-1.48,1.91,20.12,43.91,26.21,2
2219915,0.04,-1.0,-0.13,0.33,-1.87,2.27,20.15,43.9,26.12,2
2219925,0.05,-1.0,-0.13,0.42,-2.4,3.26,20.15,43.9,26.12,2
2219937,0.05,-1.0,-0.13,0.3,-2.53,4.01,20.15,43.9,26.12,2
2219947,0.05,-1.0,-0.13,0.39,-2.32,3.55,20.15,43.9,26.12,2
2219957,0.05,-1.0,-0.13,0.51,-2.08,3.21,20.15,43.9,26.12,2
2219968,0.05,-1.0,-0.13,0.52,-2.0,3.21,20.19,43.94,26.08,2
2219980,0.06,-1.0,-0.13,0.72,-2.25,3.18,20.19,43.94,26.08,2
2219990,0.06,-1.0,-0.13,0.95,-2.44,2.91,20.19,43.94,26.08,2
2220000,0.05,-1.0,-0.13,1.11,-2.39,2.55,20.19,43.94,26.08,2
2220011,0.05,-1.0,-0.13,1.17,-2.22,2.23,20.24,43.95,26.15,2
2220023,0.05,-1.0,-0.13,0.93,-1.89,2.5,20.24,43.95,26.15,2
2220033,0.06,-1.0,-0.13,0.57,-1.88,2.88,20.24,43.95,26.15,2
2220043,0.06,-1.0,-0.13,0.24,-2.08,3.15,20.24,43.95,26.15,2
2220053,0.06,-1.0,-0.13,0.12,-2.32,3.1,20.24,43.95,26.15,2
2220066,0.06,-1.0,-0.13,0.34,-2.17,1.98,20.47,44.11,26.13,2
2220076,0.05,-1.0,-0.13,0.35,-2.0,1.76,20.47,44.11,26.13,2
2220086,0.05,-1.0,-0.13,0.23,-1.8,1.95,20.47,44.11,26.13,2
2220098,0.06,-1.0,-0.13,0.22,-1.66,2.18,20.47,44.11,26.13,2
2220110,0.06,-1.0,-0.12,0.4,-1.82,1.88,20.63,44.12,26.07,2
2220122,0.06,-1.0,-0.12,0.61,-2.04,1.79,20.63,44.12,26.07,2
2220133,0.06,-1.0,-0.12,0.49,-2.28,2.58,20.63,44.12,26.07,2
2220144,0.06,-1.0,-0.13,0.27,-2.35,3.1,20.63,44.12,26.07,2
2220155,0.06,-1.0,-0.12,0.07,-2.44,3.46,20.63,44.12,26.07,2
2220169,0.06,-1.0,-0.12,-0.06,-2.6,3.57,20.72,44.2,25.89,2
2220179,0.06,-1.0,-0.12,0.05,-2.57,3.3,20.72,44.2,25.89,2
2220189,0.06,-1.0,-0.12,0.12,-2.46,3.01,20.72,44.2,25.89,2
2220199,0.06,-1.0,-0.12,0.03,-2.25,2.9,20.72,44.2,25.89,2
2220210,0.06,-1.0,-0.12,0.02,-2.04,2.69,20.94,44.23,26.03,2
2220221,0.07,-1.0,-0.12,0.19,-1.87,2.3,20.94,44.23,26.03,2
2220231,0.07,-1.0,-0.12,0.51,-1.69,1.74,20.94,44.23,26.03,2
2220241,0.06,-1.0,-0.12,0.78,-1.57,1.23,20.94,44.23,26.03,2
2220254,0.06,-1.0,-0.12,1.17,-1.27,0.68,20.94,44.23,26.03,2
2220265,0.06,-1.0,-0.12,1.2,-1.13,0.61,20.98,44.2,26.24,2
2220277,0.06,-1.0,-0.12,1.12,-0.99,0.69,20.98,44.2,26.24,2
2220289,0.07,-1.0,-0.12,0.7,-0.76,0.92,20.98,44.2,26.24,2
2220299,0.07,-1.0,-0.12,0.52,-0.77,0.92,20.98,44.2,26.24,2
2220310,0.07,-1.0,-0.12,0.47,-0.87,0.8,20.97,44.11,26.02,2
2220323,0.07,-1.0,-0.12,0.72,-0.89,0.58,20.97,44.11,26.02,2
2220335,0.06,-1.0,-0.12,0.88,-0.76,0.43,20.97,44.11,26.02,2
2220345,0.06,-1.0,-0.12,1.09,-0.68,0.24,20.97,44.11,26.02,2
2220356,0.06,-1.0,-0.12,1.48,-0.46,-0.11,20.97,44.11,26.02,2
2220368,0.06,-1.0,-0.12,1.62,-0.3,-0.09,20.97,44.06,26.34,2
2220379,0.06,-1.0,-0.12,1.72,-0.16,-0.02,20.97,44.06,26.34,2
2220392,0.06,-1.0,-0.12,1.98,0.16,0.13,20.97,44.06,26.34,2
2220402,0.06,-1.0,-0.12,2.12,0.3,0.25,20.97,44.06,26.34,2
2220412,0.06,-1.0,-0.12,2.18,0.47,0.41,20.98,43.94,26.33,2
2220425,0.07,-1.0,-0.12,2.09,0.77,0.32,20.98,43.94,26.33,2
2220436,0.07,-1.0,-0.12,2.22,0.63,-0.14,20.98,43.94,26.33,2
2220446,0.07,-1.0,-0.12,2.24,0.3,-0.5,20.98,43.94,26.33,2
2220456,0.07,-1.0,-0.12,2.15,-0.01,-0.62,20.98,43.94,26.33,2
2220468,0.06,-1.0,-0.12,1.83,-0.27,-0.53,21.07,43.87,26.29,2
2220479,0.07,-1.0,-0.13,1.43,-0.4,-0.35,21.07,43.87,26.29,2
2220490,0.06,-1.0,-0.12,0.92,-0.54,-0.11,21.07,43.87,26.29,2
2220504,0.07,-1.0,-0.12,0.24,-0.65,-0.24,21.07,43.87,26.29,2
2220515,0.06,-1.0,-0.12,0.0,-0.44,-0.59,21.06,43.9,26.28,2
2220528,0.06,-1.0,-0.12,-0.31,-0.32,-0.91,21.06,43.9,26.28,2
2220539,0.06,-1.0,-0.12,-0.55,-0.36,-0.51,21.06,43.9,26.28,2
2220551,0.06,-1.0,-0.12,-0.86,-0.39,0.1,21.06,43.9,26.28,2
2220564,0.06,-1.0,-0.12,-1.71,-0.35,1.61,21.11,44.0,26.23,2
2220576,0.06,-1.0,-0.12,-2.33,-0.4,2.32,21.11,44.0,26.23,2
2220590,0.07,-1.0,-0.12,-3.55,-0.78,2.94,21.11,44.0,26.23,2
2220601,0.07,-1.0,-0.12,-3.93,-1.05,2.84,21.11,44.0,26.23,2
2220613,0.07,-1.0,-0.11,-3.97,-1.45,1.97,21.16,44.05,26.36,2
2220624,0.07,-1.0,-0.11,-3.8,-1.44,1.5,21.16,44.05,26.36,2
2220635,0.07,-1.0,-0.11,-3.45,-1.43,1.09,21.16,44.05,26.36,2
2220646,0.07,-1.0,-0.1,-2.97,-1.43,0.75,21.16,44.05,26.36,2
2220660,0.07,-1.0,-0.1,-2.0,-1.25,0.45,21.11,44.11,26.36,2
2220671,0.07,-1.0,-0.1,-1.75,-1.08,0.42,21.11,44.11,26.36,2
2220682,0.07,-1.0,-0.11,-1.72,-0.96,0.4,21.11,44.11,26.36,2
2220694,0.08,-1.0,-0.11,-1.83,-1.09,0.46,21.11,44.11,26.36,2
2220705,0.08,-1.0,-0.11,-2.0,-1.35,0.47,21.11,44.11,26.36,2
2220718,0.08,-1.0,-0.11,-2.4,-1.97,0.11,21.2,44.13,26.23,2
2220730,0.08,-1.0,-0.1,-2.63,-2.35,0.03,21.2,44.13,26.23,2
2220744,0.07,-1.0,-0.1,-3.12,-3.33,0.16,21.2,44.13,26.23,2
2220754,0.07,-1.0,-0.1,-3.32,-3.81,0.19,21.2,44.13,26.23,2
2220765,0.07,-1.0,-0.1,-3.59,-4.24,0.43,21.29,44.17,25.59,2
2220779,0.06,-1.0,-0.1,-4.55,-5.0,1.5,21.29,44.17,25.59,2
2220789,0.06,-1.0,-0.1,-5.06,-5.33,1.81,21.29,44.17,25.59,2
2220800,0.06,-1.0,-0.1,-5.37,-5.61,1.91,21.29,44.17,25.59,2
2220813,0.06,-1.0,-0.09,-5.77,-6.05,2.49,21.26,44.25,25.26,2
2220825,0.07,-1.0,-0.09,-6.05,-6.25,3.21,21.26,44.25,25.26,2
2220839,0.06,-1.0,-0.09,-6.68,-6.32,4.91,21.26,44.25,25.26,2
2220851,0.06,-1.0,-0.09,-6.96,-6.11,5.98,21.26,44.25,25.26,2
2220863,0.06,-1.0,-0.08,-7.65,-5.93,9.02,21.32,44.35,25.03,2
2220874,0.06,-1.0,-0.08,-8.1,-6.09,11.17,21.32,44.35,25.03,2
2220886,0.07,-1.0,-0.08,-8.65,-6.09,13.57,21.32,44.35,25.03,2
2220897,0.07,-1.0,-0.07,-9.35,-5.5,16.9,21.32,44.35,25.03,2
2220909,0.09,-1.0,-0.07,-9.32,-5.15,17.73,21.48,44.64,24.7,2
2220921,0.1,-1.0,-0.07,-9.09,-4.77,18.18,21.48,44.64,24.7,2
2220933,0.12,-0.99,-0.06,-7.94,-4.18,17.33,21.48,44.64,24.7,2
2220944,0.12,-0.99,-0.05,-6.74,-3.92,15.93,21.48,44.64,24.7,2
2220955,0.12,-0.99,-0.05,-5.41,-3.6,14.04,21.48,44.64,24.7,2
2220968,0.12,-0.99,-0.05,-2.97,-2.75,10.29,21.71,44.78,24.7,2
2220978,0.11,-0.99,-0.05,-1.93,-2.26,8.76,21.71,44.78,24.7,2
2220989,0.11,-1.0,-0.05,-1.16,-1.77,7.68,21.71,44.78,24.7,2
2221002,0.11,-1.0,-0.06,-0.5,-1.28,6.82,21.71,44.78,24.7,2
2221013,0.11,-1.0,-0.06,-0.57,-1.39,7.01,22.09,45.04,24.64,2
2221024,0.11,-1.0,-0.06,-0.76,-1.66,7.36,22.09,45.04,24.64,2
2221036,0.12,-1.0,-0.06,-1.06,-2.05,7.45,22.09,45.04,24.64,2
2221047,0.12,-1.0,-0.05,-0.99,-2.19,6.83,22.09,45.04,24.64,2
2221058,0.13,-1.0,-0.05,-0.67,-2.27,5.72,22.39,45.12,24.33,2
2221069,0.13,-1.0,-0.05,0.74,-2.47,2.61,22.39,45.12,24.33,2
2221080,0.13,-0.99,-0.05,1.65,-2.56,1.16,22.39,45.12,24.33,2
2221091,0.12,-0.99,-0.05,2.7,-2.4,-0.07,22.39,45.12,24.33,2
2221105,0.11,-1.0,-0.06,3.83,-1.36,-0.93,22.39,45.12,24.33,2
2221116,0.11,-1.0,-0.06,3.83,-0.67,-0.62,22.67,45.01,24.28,2
2221129,0.11,-1.0,-0.06,3.43,0.65,-0.11,22.67,45.01,24.28,2
2221140,0.13,-1.0,-0.06,3.24,0.89,0.05,22.67,45.01,24.28,2
2221150,0.14,-1.0,-0.06,3.1,0.65,-0.04,22.67,45.01,24.28,2
2221161,0.14,-1.0,-0.06,3.12,-0.02,-0.48,22.83,44.96,24.36,2
2221172,0.14,-1.0,-0.06,3.69,-1.66,-2.28,22.83,44.96,24.36,2
2221183,0.14,-1.0,-0.06,3.96,-2.5,-3.38,22.83,44.96,24.36,2
2221195,0.13,-1.0,-0.05,4.08,-3.24,-4.57,22.83,44.96,24.36,2
2221209,0.11,-0.99,-0.05,4.27,-2.9,-5.3,22.9,44.96,24.36,2
2221221,0.12,-0.99,-0.05,5.19,-2.93,-4.26,22.9,44.96,24.36,2
2221232,0.12,-0.99,-0.06,6.8,-2.94,-3.52,22.9,44.96,24.36,2
2221243,0.12,-1.0,-0.07,7.09,-3.53,-3.45,22.9,44.96,24.36,2
2221255,0.13,-1.0,-0.08,6.91,-4.5,-3.54,22.9,44.96,24.36,2
2221268,0.12,-1.01,-0.08,5.64,-8.01,-4.31,23.0,45.04,24.29,2
2221279,0.11,-1.01,-0.09,4.33,-10.16,-4.54,23.0,45.04,24.29,2
2221290,0.09,-1.01,-0.09,2.36,-12.12,-4.0,23.0,45.04,24.29,2
2221301,0.07,-1.02,-0.1,-3.06,-14.8,0.17,23.0,45.04,24.29,2
2221313,0.05,-1.03,-0.09,-6.3,-15.96,4.25,23.14,45.01,24.34,2
2221323,0.06,-1.03,-0.08,-9.8,-16.99,10.02,23.14,45.01,24.34,2
2221333,0.08,-1.03,-0.07,-13.34,-17.28,16.36,23.14,45.01,24.34,2
2221344,0.09,-1.01,-0.06,-17.27,-15.99,23.41,23.14,45.01,24.34,2
2221356,0.12,-1.0,-0.04,-17.27,-14.37,23.63,23.14,45.01,24.34,2
2221367,0.13,-0.99,-0.03,-15.77,-12.28,21.64,23.31,44.95,24.09,2
2221378,0.14,-0.98,-0.02,-10.41,-7.72,14.51,23.31,44.95,24.09,2
2221389,0.16,-0.97,-0.02,-7.42,-5.62,11.04,23.31,44.95,24.09,2
2221399,0.17,-0.97,-0.02,-4.48,-3.87,8.04,23.31,44.95,24.09,2
2221410,0.17,-0.98,-0.02,-1.79,-2.6,5.3,23.7,44.97,23.8,2
2221421,0.18,-0.98,-0.02,2.6,-0.82,-0.3,23.7,44.97,23.8,2
2221432,0.17,-0.99,-0.02,4.28,-0.21,-3.2,23.7,44.97,23.8,2
2221444,0.15,-1.0,-0.02,5.62,-0.1,-5.55,23.7,44.97,23.8,2
2221454,0.14,-1.0,-0.03,6.48,-0.34,-7.02,23.7,44.97,23.8,2
2221467,0.1,-1.01,-0.05,6.46,-1.29,-6.65,23.94,44.92,23.72,2
2221477,0.09,-1.02,-0.06,5.39,-1.66,-5.19,23.94,44.92,23.72,2
2221489,0.1,-1.02,-0.06,1.79,-2.62,-0.67,23.94,44.92,23.72,2
2221501,0.11,-1.01,-0.06,-0.34,-3.32,1.94,23.94,44.92,23.72,2
2221512,0.12,-1.01,-0.05,-2.22,-4.08,4.09,24.08,44.95,23.55,2
2221522,0.13,-1.0,-0.05,-3.56,-4.75,5.54,24.08,44.95,23.55,2
2221534,0.13,-0.99,-0.04,-4.91,-5.76,8.3,24.08,44.95,23.55,2
2221545,0.13,-0.99,-0.03,-5.17,-5.63,9.9,24.08,44.95,23.55,2
2221556,0.14,-0.99,-0.03,-5.0,-4.92,10.69,24.08,44.95,23.55,2
2221569,0.16,-0.98,-0.02,-3.09,-2.23,8.38,24.41,44.93,23.26,2
2221579,0.17,-0.98,-0.01,-1.56,-1.05,6.22,24.41,44.93,23.26,2
2221591,0.17,-0.98,-0.01,0.17,-0.43,4.2,24.41,44.93,23.26,2
2221603,0.17,-0.99,-0.02,3.52,-0.21,0.33,24.41,44.93,23.26,2
2221614,0.16,-0.99,-0.02,4.79,-0.33,-1.47,24.7,44.97,23.19,2
2221624,0.15,-1.0,-0.03,5.54,-0.62,-2.65,24.7,44.97,23.19,2
2221637,0.13,-1.01,-0.04,5.17,-1.35,-2.29,24.7,44.97,23.19,2
2221649,0.12,-1.01,-0.05,4.12,-1.58,-1.14,24.7,44.97,23.19,2
2221661,0.12,-1.01,-0.05,1.46,-1.88,1.25,24.77,45.0,23.2,2
2221672,0.13,-1.0,-0.05,0.25,-1.97,2.17,24.77,45.0,23.2,2
2221684,0.14,-1.0,-0.04,-0.65,-1.93,2.87,24.77,45.0,23.2,2
2221694,0.14,-0.99,-0.04,-1.23,-1.83,3.27,24.77,45.0,23.2,2
2221706,0.15,-0.99,-0.02,-1.11,-1.53,3.39,24.77,45.0,23.2,2
2221717,0.16,-0.98,-0.02,-0.33,-1.29,2.82,24.82,45.11,23.27,2
2221728,0.16,-0.98,-0.02,0.82,-0.98,1.66,24.82,45.11,23.27,2
2221741,0.16,-0.99,-0.02,3.69,-0.24,-1.28,24.82,45.11,23.27,2
2221752,0.16,-0.99,-0.02,4.96,0.02,-2.58,24.82,45.11,23.27,2
2221764,0.15,-0.99,-0.02,6.77,0.29,-4.1,24.84,45.09,23.28,2
2221775,0.15,-0.99,-0.03,7.48,0.27,-4.77,24.84,45.09,23.28,2
2221787,0.15,-1.0,-0.03,8.09,0.13,-5.33,24.84,45.09,23.28,2
2221800,0.13,-1.0,-0.04,8.33,-0.38,-5.39,24.84,45.09,23.28,2
2221811,0.13,-1.0,-0.05,7.91,-0.69,-4.82,24.77,44.98,23.15,2
2221823,0.13,-1.01,-0.05,6.95,-1.05,-4.05,24.77,44.98,23.15,2
2221835,0.13,-1.01,-0.06,4.18,-1.81,-2.42,24.77,44.98,23.15,2
2221847,0.13,-1.01,-0.05,2.71,-2.17,-1.33,24.77,44.98,23.15,2
2221858,0.13,-1.0,-0.05,1.28,-2.35,-0.34,24.77,44.96,23.08,2
2221869,0.13,-1.0,-0.04,0.35,-2.4,0.23,24.77,44.96,23.08,2
2221881,0.14,-0.99,-0.04,-0.08,-2.31,0.05,24.77,44.96,23.08,2
2221891,0.14,-0.99,-0.04,0.06,-1.94,-0.27,24.77,44.96,23.08,2
2221902,0.14,-0.99,-0.04,0.95,-0.94,-1.29,24.77,44.96,23.08,2
2221914,0.14,-0.99,-0.04,1.7,-0.24,-2.14,24.82,44.95,23.14,2
2221925,0.15,-0.99,-0.03,2.44,0.56,-3.13,24.82,44.95,23.14,2
2221937,0.14,-0.99,-0.04,4.23,1.48,-5.14,24.82,44.95,23.14,2
2221949,0.14,-0.99,-0.04,4.91,1.67,-5.99,24.82,44.95,23.14,2
2221960,0.13,-1.0,-0.05,5.23,1.62,-6.48,24.68,44.99,23.22,2
