time,acc_x,acc_y,acc_z,gyro_x,gyro_y,gyro_z,mag_x,mag_y,mag_z,label
712124,-1.01,-0.02,-0.01,1.74,-0.94,-0.02,-21.35,-1.65,17.2,3
712136,-1.01,-0.02,-0.01,1.78,-0.98,-0.02,-21.35,-1.65,17.2,3
712147,-1.01,-0.02,-0.01,1.77,-1.04,-0.0,-21.3,-1.66,17.29,3
712160,-1.01,-0.02,-0.01,1.71,-1.03,0.01,-21.3,-1.66,17.29,3
712171,-1.01,-0.02,-0.01,1.7,-1.01,0.02,-21.3,-1.66,17.29,3
712183,-1.01,-0.02,-0.01,1.71,-1.0,0.03,-21.3,-1.66,17.29,3
712197,-1.01,-0.02,-0.01,1.75,-1.15,0.02,-21.31,-1.57,17.42,3
712208,-1.01,-0.02,-0.01,1.75,-1.31,0.04,-21.31,-1.57,17.42,3
712222,-1.01,-0.02,-0.01,1.7,-1.59,0.0,-21.31,-1.57,17.42,3
712234,-1.01,-0.02,-0.02,1.72,-1.67,0.0,-21.31,-1.57,17.42,3
712246,-1.01,-0.02,-0.02,1.75,-1.32,-0.05,-21.28,-1.51,17.38,3
712257,-1.01,-0.02,-0.02,1.78,-1.06,-0.04,-21.28,-1.51,17.38,3
712269,-1.01,-0.02,-0.02,1.79,-0.82,-0.06,-21.28,-1.51,17.38,3
712282,-1.01,-0.02,-0.01,1.78,-0.65,-0.05,-21.28,-1.51,17.38,3
712294,-1.01,-0.02,-0.01,1.77,-0.8,-0.04,-21.22,-1.49,17.45,3
712308,-1.01,-0.02,-0.01,1.73,-1.06,-0.02,-21.22,-1.49,17.45,3
712319,-1.01,-0.02,-0.01,1.73,-1.05,-0.0,-21.22,-1.49,17.45,3
712333,-1.01,-0.02,-0.01,1.77,-0.78,-0.02,-21.22,-1.49,17.45,3
712345,-1.01,-0.02,-0.01,1.77,-0.66,-0.03,-21.22,-1.48,17.31,3
712358,-1.01,-0.02,-0.01,1.78,-0.71,-0.02,-21.22,-1.48,17.31,3
712369,-1.01,-0.02,-0.01,1.76,-0.87,0.01,-21.22,-1.48,17.31,3
712381,-1.01,-0.02,-0.01,1.79,-1.02,0.01,-21.22,-1.48,17.31,3
712393,-1.01,-0.02,-0.01,1.79,-1.5,0.05,-21.26,-1.62,17.24,3
712405,-1.01,-0.02,-0.01,1.78,-1.71,0.06,-21.26,-1.62,17.24,3
712418,-1.01,-0.02,-0.01,1.74,-1.96,0.04,-21.26,-1.62,17.24,3
712429,-1.01,-0.02,-0.02,1.75,-1.9,0.07,-21.26,-1.62,17.24,3
712441,-1.01,-0.02,-0.02,1.79,-1.66,0.04,-21.26,-1.62,17.24,3
712454,-1.01,-0.02,-0.02,1.83,-0.69,-0.02,-21.2,-1.52,17.2,3
712466,-1.01,-0.02,-0.01,1.8,-0.06,-0.06,-21.2,-1.52,17.2,3
712480,-1.01,-0.02,-0.01,1.81,0.12,-0.05,-21.2,-1.52,17.2,3
712493,-1.01,-0.02,-0.01,1.8,-0.23,-0.04,-21.16,-1.44,17.31,3
712505,-1.01,-0.02,-0.01,1.75,-0.81,-0.04,-21.16,-1.44,17.31,3
712517,-1.01,-0.02,-0.01,1.74,-0.92,-0.03,-21.16,-1.44,17.31,3
712531,-1.01,-0.02,-0.01,1.78,-1.04,0.05,-21.16,-1.44,17.31,3
712542,-1.01,-0.02,-0.01,1.8,-1.24,0.07,-21.22,-1.4,17.27,3
712555,-1.01,-0.02,-0.01,1.75,-1.89,0.04,-21.22,-1.4,17.27,3
712566,-1.01,-0.02,-0.01,1.72,-2.13,0.0,-21.22,-1.4,17.27,3
712578,-1.01,-0.02,-0.01,1.71,-2.27,0.03,-21.22,-1.4,17.27,3
712593,-1.01,-0.02,-0.02,1.72,-2.18,0.02,-21.23,-1.36,17.43,3
712605,-1.01,-0.02,-0.02,1.73,-1.99,0.01,-21.23,-1.36,17.43,3
712617,-1.01,-0.02,-0.02,1.7,-1.59,-0.04,-21.23,-1.36,17.43,3
712629,-1.01,-0.02,-0.02,1.67,-1.47,-0.04,-21.23,-1.36,17.43,3
712644,-1.01,-0.02,-0.02,1.7,-1.1,-0.04,-21.28,-1.35,17.54,3
712656,-1.01,-0.02,-0.02,1.73,-0.88,-0.06,-21.28,-1.35,17.54,3
712668,-1.01,-0.02,-0.01,1.74,-0.51,-0.06,-21.28,-1.35,17.54,3
712679,-1.01,-0.02,-0.01,1.75,-0.43,-0.05,-21.28,-1.35,17.54,3
712691,-1.01,-0.02,-0.01,1.75,-0.47,-0.05,-21.28,-1.35,17.54,3
712704,-1.01,-0.02,-0.01,1.77,-0.78,-0.04,-21.24,-1.47,17.74,3
712716,-1.01,-0.02,-0.01,1.76,-0.9,-0.06,-21.24,-1.47,17.74,3
712727,-1.01,-0.02,-0.01,1.73,-1.18,-0.03,-21.24,-1.47,17.74,3
712738,-1.01,-0.02,-0.02,1.75,-1.09,-0.03,-21.24,-1.47,17.74,3
712750,-1.01,-0.02,-0.01,1.77,-0.88,-0.01,-21.19,-1.54,17.98,3
712763,-1.01,-0.02,-0.01,1.8,-0.56,-0.06,-21.19,-1.54,17.98,3
712775,-1.01,-0.02,-0.01,1.8,-0.5,-0.07,-21.19,-1.54,17.98,3
712787,-1.01,-0.02,-0.01,1.77,-0.94,-0.06,-21.19,-1.54,17.98,3
712799,-1.01,-0.02,-0.01,1.73,-1.14,-0.06,-21.27,-1.52,18.01,3
712811,-1.01,-0.02,-0.01,1.74,-1.25,-0.05,-21.27,-1.52,18.01,3
712823,-1.01,-0.02,-0.01,1.71,-1.38,-0.02,-21.27,-1.52,18.01,3
712835,-1.01,-0.02,-0.01,1.71,-1.36,-0.04,-21.27,-1.52,18.01,3
712849,-1.01,-0.02,-0.01,1.72,-1.34,0.0,-21.3,-1.47,17.94,3
712861,-1.01,-0.02,-0.01,1.73,-1.26,0.03,-21.3,-1.47,17.94,3
712874,-1.01,-0.02,-0.01,1.71,-1.06,0.03,-21.3,-1.47,17.94,3
712885,-1.01,-0.02,-0.01,1.73,-0.98,0.02,-21.3,-1.47,17.94,3
712896,-1.01,-0.02,-0.01,1.76,-0.96,0.03,-21.23,-1.35,17.8,3
712907,-1.01,-0.02,-0.01,1.73,-1.14,0.02,-21.23,-1.35,17.8,3
712918,-1.01,-0.02,-0.01,1.72,-1.2,-0.0,-21.23,-1.35,17.8,3
712931,-1.01,-0.02,-0.01,1.73,-1.24,-0.01,-21.23,-1.35,17.8,3
712943,-1.01,-0.02,-0.01,1.76,-1.04,-0.01,-21.04,-1.38,17.66,3
712955,-1.01,-0.02,-0.01,1.76,-0.88,-0.01,-21.04,-1.38,17.66,3
712969,-1.01,-0.02,-0.01,1.75,-0.94,-0.03,-21.04,-1.38,17.66,3
712981,-1.01,-0.02,-0.01,1.74,-1.16,-0.02,-21.04,-1.38,17.66,3
712992,-1.01,-0.02,-0.01,1.77,-1.38,0.01,-21.09,-1.4,17.63,3
713003,-1.01,-0.02,-0.01,1.8,-1.52,0.01,-21.09,-1.4,17.63,3
713015,-1.01,-0.02,-0.01,1.82,-1.29,-0.03,-21.09,-1.4,17.63,3
713029,-1.01,-0.02,-0.01,1.72,-1.04,-0.06,-21.09,-1.4,17.63,3
713042,-1.01,-0.02,-0.01,1.69,-1.06,-0.05,-21.08,-1.37,17.31,3
713053,-1.01,-0.02,-0.01,1.72,-1.36,-0.03,-21.08,-1.37,17.31,3
713065,-1.01,-0.02,-0.01,1.72,-1.5,-0.06,-21.08,-1.37,17.31,3
713076,-1.01,-0.02,-0.01,1.73,-1.66,-0.08,-21.08,-1.37,17.31,3
713088,-1.01,-0.02,-0.01,1.76,-1.73,-0.03,-21.08,-1.37,17.31,3
713099,-1.01,-0.02,-0.01,1.75,-1.71,0.0,-21.12,-1.33,17.52,3
713110,-1.01,-0.02,-0.01,1.74,-1.71,0.01,-21.12,-1.33,17.52,3
713123,-1.01,-0.02,-0.01,1.73,-1.72,-0.01,-21.12,-1.33,17.52,3
713135,-1.01,-0.02,-0.01,1.71,-1.71,-0.01,-21.12,-1.33,17.52,3
713148,-1.01,-0.02,-0.01,1.73,-1.78,0.04,-21.06,-1.34,17.63,3
713159,-1.01,-0.02,-0.01,1.74,-1.77,0.03,-21.06,-1.34,17.63,3
713171,-1.01,-0.02,-0.02,1.69,-1.59,0.03,-21.06,-1.34,17.63,3
713182,-1.01,-0.02,-0.02,1.72,-1.23,0.0,-21.06,-1.34,17.63,3
713194,-1.01,-0.02,-0.02,1.76,-0.97,0.0,-21.03,-1.32,17.64,3
713206,-1.01,-0.02,-0.02,1.76,-0.79,0.03,-21.03,-1.32,17.64,3
713218,-1.01,-0.02,-0.01,1.72,-0.62,-0.02,-21.03,-1.32,17.64,3
713229,-1.01,-0.02,-0.01,1.72,-0.67,-0.0,-21.03,-1.32,17.64,3
713242,-1.01,-0.02,-0.01,1.7,-0.71,0.01,-20.97,-1.26,17.69,3
713253,-1.01,-0.02,-0.01,1.73,-0.65,0.01,-20.97,-1.26,17.69,3
713265,-1.01,-0.02,-0.01,1.71,-0.59,-0.05,-20.97,-1.26,17.69,3
713276,-1.01,-0.02,-0.01,1.75,-0.62,-0.05,-20.97,-1.26,17.69,3
713288,-1.01,-0.02,-0.01,1.76,-0.66,-0.05,-20.97,-1.26,17.69,3
713299,-1.01,-0.02,-0.01,1.74,-0.66,-0.05,-20.98,-1.36,17.46,3
713313,-1.01,-0.02,-0.01,1.7,-0.53,-0.11,-20.98,-1.36,17.46,3
713325,-1.01,-0.02,-0.01,1.72,-0.63,-0.11,-20.98,-1.36,17.46,3
713339,-1.01,-0.02,-0.01,1.7,-0.93,-0.07,-20.98,-1.36,17.46,3
713350,-1.01,-0.02,-0.01,1.7,-1.09,-0.04,-21.05,-1.28,17.41,3
713364,-1.01,-0.02,-0.01,1.71,-1.01,-0.05,-21.05,-1.28,17.41,3
713375,-1.01,-0.02,-0.01,1.72,-0.87,-0.03,-21.05,-1.28,17.41,3
713387,-1.01,-0.02,-0.01,1.72,-0.8,-0.02,-21.05,-1.28,17.41,3
713400,-1.01,-0.02,-0.01,1.83,-0.93,-0.01,-21.04,-1.17,17.31,3
713412,-1.01,-0.02,-0.01,1.8,-1.07,-0.01,-21.04,-1.17,17.31,3
713424,-1.01,-0.02,-0.01,1.78,-1.33,0.01,-21.04,-1.17,17.31,3
713436,-1.01,-0.02,-0.01,1.76,-1.4,-0.01,-21.04,-1.17,17.31,3
713449,-1.01,-0.02,-0.01,1.8,-1.27,0.01,-21.01,-1.15,17.42,3
713460,-1.01,-0.02,-0.01,1.82,-1.21,0.01,-21.01,-1.15,17.42,3
713472,-1.01,-0.02,-0.01,1.77,-1.12,-0.02,-21.01,-1.15,17.42,3
713483,-1.01,-0.02,-0.01,1.73,-1.05,-0.02,-21.01,-1.15,17.42,3
713494,-1.01,-0.02,-0.01,1.73,-0.98,-0.03,-21.03,-1.18,17.27,3
713506,-1.01,-0.02,-0.01,1.75,-0.91,-0.01,-21.03,-1.18,17.27,3
713518,-1.01,-0.02,-0.01,1.73,-0.88,-0.04,-21.03,-1.18,17.27,3
713530,-1.01,-0.02,-0.01,1.73,-0.89,-0.05,-21.03,-1.18,17.27,3
713542,-1.01,-0.02,-0.01,1.74,-0.93,-0.04,-20.98,-1.25,17.05,3
713553,-1.01,-0.02,-0.01,1.76,-0.97,-0.04,-20.98,-1.25,17.05,3
713564,-1.01,-0.02,-0.01,1.72,-1.01,-0.06,-20.98,-1.25,17.05,3
713576,-1.01,-0.02,-0.01,1.7,-1.09,-0.03,-20.98,-1.25,17.05,3
713588,-1.01,-0.02,-0.01,1.7,-1.24,-0.01,-20.98,-1.25,17.05,3
713599,-1.01,-0.02,-0.01,1.72,-1.34,0.01,-21.05,-1.31,17.12,3
713613,-1.01,-0.02,-0.01,1.71,-1.52,-0.02,-21.05,-1.31,17.12,3
713625,-1.01,-0.02,-0.01,1.71,-1.76,0.03,-21.05,-1.31,17.12,3
713639,-1.01,-0.02,-0.01,1.73,-2.11,0.06,-21.05,-1.31,17.12,3
713650,-1.01,-0.02,-0.01,1.74,-2.03,0.05,-21.1,-1.26,17.28,3
713661,-1.01,-0.02,-0.02,1.75,-1.79,0.03,-21.1,-1.26,17.28,3
713672,-1.01,-0.02,-0.02,1.8,-1.13,-0.01,-21.1,-1.26,17.28,3
713683,-1.01,-0.02,-0.01,1.81,-0.92,-0.02,-21.1,-1.26,17.28,3
713695,-1.01,-0.02,-0.01,1.8,-0.89,-0.02,-21.17,-1.34,17.26,3
713706,-1.01,-0.02,-0.01,1.78,-1.14,0.04,-21.17,-1.34,17.26,3
713718,-1.01,-0.02,-0.01,1.74,-1.28,0.06,-21.17,-1.34,17.26,3
713730,-1.01,-0.02,-0.01,1.69,-1.36,0.06,-21.17,-1.34,17.26,3
713743,-1.01,-0.02,-0.01,1.71,-1.35,0.03,-21.15,-1.36,17.31,3
713755,-1.01,-0.02,-0.01,1.73,-1.44,0.01,-21.15,-1.36,17.31,3
713766,-1.01,-0.02,-0.01,1.77,-1.38,0.01,-21.15,-1.36,17.31,3
713777,-1.01,-0.02,-0.01,1.76,-1.23,0.02,-21.15,-1.36,17.31,3
713788,-1.01,-0.02,-0.01,1.75,-1.1,0.02,-21.15,-1.36,17.31,3
713799,-1.01,-0.02,-0.01,1.78,-1.09,0.0,-21.21,-1.47,17.39,3
713811,-1.01,-0.02,-0.01,1.76,-1.3,-0.01,-21.21,-1.47,17.39,3
713823,-1.01,-0.02,-0.01,1.74,-1.43,0.02,-21.21,-1.47,17.39,3
713837,-1.01,-0.02,-0.02,1.72,-1.22,0.02,-21.21,-1.47,17.39,3
713848,-1.01,-0.02,-0.01,1.73,-1.01,0.02,-21.24,-1.31,17.31,3
713861,-1.01,-0.02,-0.01,1.74,-0.83,-0.04,-21.24,-1.31,17.31,3
713873,-1.01,-0.02,-0.01,1.69,-0.98,-0.04,-21.24,-1.31,17.31,3
713885,-1.01,-0.02,-0.01,1.71,-1.05,-0.02,-21.24,-1.31,17.31,3
713897,-1.01,-0.02,-0.01,1.71,-1.06,-0.02,-21.2,-1.38,17.13,3
713908,-1.01,-0.02,-0.02,1.72,-1.01,-0.05,-21.2,-1.38,17.13,3
713921,-1.01,-0.02,-0.01,1.74,-0.69,-0.08,-21.2,-1.38,17.13,3
713932,-1.01,-0.02,-0.01,1.74,-0.57,-0.07,-21.2,-1.38,17.13,3
713943,-1.01,-0.02,-0.01,1.73,-0.54,-0.08,-21.2,-1.35,17.19,3
713957,-1.01,-0.02,-0.01,1.72,-0.7,-0.08,-21.2,-1.35,17.19,3
713968,-1.01,-0.02,-0.01,1.73,-0.78,-0.06,-21.2,-1.35,17.19,3
713981,-1.01,-0.02,-0.01,1.76,-0.98,-0.01,-21.2,-1.35,17.19,3
713993,-1.01,-0.02,-0.01,1.77,-1.1,0.0,-21.23,-1.37,17.09,3
714005,-1.01,-0.02,-0.01,1.77,-1.1,0.02,-21.23,-1.37,17.09,3
714017,-1.01,-0.02,-0.01,1.77,-1.2,0.01,-21.23,-1.37,17.09,3
714029,-1.01,-0.02,-0.01,1.78,-1.15,0.05,-21.23,-1.37,17.09,3
714040,-1.01,-0.02,-0.01,1.77,-1.11,0.03,-21.14,-1.38,17.23,3
714051,-1.01,-0.02,-0.01,1.75,-1.15,0.03,-21.14,-1.38,17.23,3
714062,-1.01,-0.02,-0.01,1.74,-1.07,0.04,-21.14,-1.38,17.23,3
714073,-1.01,-0.02,-0.01,1.74,-0.96,0.04,-21.14,-1.38,17.23,3
714086,-1.01,-0.02,-0.01,1.81,-1.02,0.07,-21.14,-1.38,17.23,3
714097,-1.01,-0.02,-0.01,1.82,-1.08,0.07,-21.05,-1.42,17.22,3
714110,-1.01,-0.02,-0.01,1.79,-1.25,0.03,-21.05,-1.42,17.22,3
714121,-1.01,-0.02,-0.01,1.77,-1.41,0.03,-21.05,-1.42,17.22,3
714133,-1.01,-0.02,-0.01,1.77,-1.53,0.05,-21.05,-1.42,17.22,3
714146,-1.01,-0.02,-0.01,1.78,-1.45,0.03,-21.08,-1.38,17.15,3
714158,-1.01,-0.02,-0.01,1.78,-1.47,-0.0,-21.08,-1.38,17.15,3
714172,-1.01,-0.02,-0.01,1.78,-1.36,-0.02,-21.08,-1.38,17.15,3
714184,-1.01,-0.02,-0.01,1.79,-1.34,-0.0,-21.08,-1.38,17.15,3
714197,-1.01,-0.02,-0.01,1.79,-1.5,0.01,-21.15,-1.42,17.26,3
714209,-1.01,-0.02,-0.01,1.82,-1.55,0.01,-21.15,-1.42,17.26,3
714223,-1.01,-0.02,-0.01,1.77,-1.75,0.03,-21.15,-1.42,17.26,3
714235,-1.01,-0.02,-0.02,1.76,-1.74,0.04,-21.15,-1.42,17.26,3
714247,-1.01,-0.02,-0.02,1.73,-1.41,0.03,-21.18,-1.36,17.23,3
714258,-1.01,-0.02,-0.02,1.68,-1.15,-0.04,-21.18,-1.36,17.23,3
714270,-1.01,-0.02,-0.02,1.67,-0.93,-0.07,-21.18,-1.36,17.23,3
714281,-1.01,-0.02,-0.01,1.67,-0.76,-0.06,-21.18,-1.36,17.23,3
714294,-1.01,-0.02,-0.01,1.68,-0.77,-0.06,-21.14,-1.37,17.26,3
714305,-1.01,-0.02,-0.01,1.7,-0.71,-0.06,-21.14,-1.37,17.26,3
714317,-1.01,-0.02,-0.01,1.68,-0.56,-0.09,-21.14,-1.37,17.26,3
714329,-1.01,-0.02,-0.01,1.71,-0.48,-0.08,-21.14,-1.37,17.26,3
714340,-1.01,-0.02,-0.01,1.74,-0.49,-0.06,-21.17,-1.37,17.17,3
714352,-1.01,-0.02,-0.01,1.74,-0.61,-0.05,-21.17,-1.37,17.17,3
714364,-1.01,-0.02,-0.01,1.76,-0.8,-0.08,-21.17,-1.37,17.17,3
714377,-1.01,-0.02,-0.01,1.77,-1.08,-0.08,-21.17,-1.37,17.17,3
714390,-1.01,-0.02,-0.01,1.8,-1.17,-0.06,-21.3,-1.32,17.15,3
714403,-1.01,-0.02,-0.01,1.81,-1.44,-0.05,-21.3,-1.32,17.15,3
714415,-1.01,-0.02,-0.01,1.77,-1.46,-0.04,-21.3,-1.32,17.15,3
714429,-1.01,-0.02,-0.01,1.73,-1.17,-0.06,-21.3,-1.32,17.15,3
714440,-1.01,-0.02,-0.01,1.74,-0.9,-0.08,-21.19,-1.42,17.17,3
714453,-1.01,-0.02,-0.01,1.75,-0.5,-0.06,-21.19,-1.42,17.17,3
714464,-1.01,-0.02,-0.01,1.72,-0.57,-0.06,-21.19,-1.42,17.17,3
714476,-1.01,-0.02,-0.01,1.69,-0.75,-0.03,-21.19,-1.42,17.17,3
714488,-1.01,-0.02,-0.01,1.75,-1.16,-0.02,-21.19,-1.42,17.17,3
714499,-1.01,-0.02,-0.01,1.74,-1.26,0.0,-21.18,-1.45,17.31,3
714511,-1.01,-0.02,-0.01,1.75,-1.2,0.0,-21.18,-1.45,17.31,3
714523,-1.01,-0.02,-0.01,1.76,-1.33,0.01,-21.18,-1.45,17.31,3
714535,-1.01,-0.02,-0.01,1.75,-1.56,0.02,-21.18,-1.45,17.31,3
714546,-1.01,-0.02,-0.01,1.77,-1.82,0.03,-21.3,-1.37,17.16,3
714558,-1.01,-0.02,-0.01,1.78,-2.08,0.06,-21.3,-1.37,17.16,3
714569,-1.01,-0.02,-0.01,1.76,-1.97,0.05,-21.3,-1.37,17.16,3
714580,-1.01,-0.02,-0.01,1.79,-1.85,0.05,-21.3,-1.37,17.16,3
714594,-1.01,-0.02,-0.01,1.79,-1.57,0.03,-21.24,-1.3,17.16,3
714604,-1.01,-0.02,-0.01,1.79,-1.55,0.04,-21.24,-1.3,17.16,3
714618,-1.01,-0.02,-0.01,1.79,-1.68,0.06,-21.24,-1.3,17.16,3
714630,-1.01,-0.02,-0.01,1.79,-1.74,0.06,-21.24,-1.3,17.16,3
714642,-1.01,-0.01,-0.01,1.74,-2.13,0.1,-21.17,-1.38,17.34,3
714653,-1.01,-0.01,-0.01,1.66,-2.32,0.12,-21.17,-1.38,17.34,3
714665,-1.01,-0.02,-0.01,1.57,-2.52,0.09,-21.17,-1.38,17.34,3
714679,-1.01,-0.01,-0.01,1.21,-3.83,0.25,-21.17,-1.38,17.34,3
714690,-1.02,-0.02,-0.01,0.79,-3.62,0.22,-21.19,-1.43,17.15,3
714704,-1.01,-0.02,-0.0,-3.32,-0.71,-0.06,-21.19,-1.43,17.15,3
714716,-1.01,-0.02,-0.02,-5.05,-0.0,-0.27,-21.19,-1.43,17.15,3
714730,-1.01,-0.02,-0.02,-3.51,-0.87,-0.23,-21.19,-1.43,17.15,3
714741,-1.01,-0.02,-0.02,-2.37,-1.38,-0.12,-21.19,-1.32,17.19,3
714755,-1.01,-0.02,-0.03,-0.81,-1.02,-0.11,-21.19,-1.32,17.19,3
714767,-1.01,-0.02,-0.02,-0.25,0.17,-0.2,-21.19,-1.32,17.19,3
714781,-1.01,-0.02,-0.02,0.58,0.98,-0.2,-21.19,-1.32,17.19,3
714792,-1.01,-0.02,-0.01,0.83,0.57,-0.16,-21.06,-1.34,17.11,3
714803,-1.01,-0.02,-0.01,1.0,-0.05,-0.1,-21.06,-1.34,17.11,3
714814,-1.01,-0.02,-0.01,1.23,-1.38,-0.01,-21.06,-1.34,17.11,3
714825,-1.01,-0.02,-0.02,1.35,-1.47,0.01,-21.06,-1.34,17.11,3
714837,-1.01,-0.02,-0.02,1.43,-1.28,0.01,-21.06,-1.34,17.11,3
714850,-1.01,-0.02,-0.02,1.53,-0.93,-0.03,-21.13,-1.29,17.22,3
714861,-1.01,-0.02,-0.02,1.51,-0.86,-0.05,-21.13,-1.29,17.22,3
714871,-1.01,-0.02,-0.02,1.54,-0.98,-0.03,-21.13,-1.29,17.22,3
714885,-1.01,-0.02,-0.02,1.59,-0.98,-0.03,-21.13,-1.29,17.22,3
714896,-1.01,-0.02,-0.02,1.62,-0.82,-0.02,-21.08,-1.32,17.22,3
714910,-1.01,-0.02,-0.01,1.6,-0.6,-0.04,-21.08,-1.32,17.22,3
714922,-1.01,-0.02,-0.01,1.63,-0.74,-0.02,-21.08,-1.32,17.22,3
714936,-1.01,-0.02,-0.01,1.72,-1.37,0.04,-21.08,-1.32,17.22,3
714947,-1.01,-0.02,-0.02,1.7,-1.61,0.04,-21.23,-1.3,17.34,3
714960,-1.01,-0.02,-0.02,1.76,-1.57,0.05,-21.23,-1.3,17.34,3
714971,-1.01,-0.02,-0.02,1.79,-1.36,0.03,-21.23,-1.3,17.34,3
714983,-1.01,-0.02,-0.02,1.8,-1.1,0.02,-21.23,-1.3,17.34,3
714996,-1.01,-0.02,-0.02,1.84,-0.7,0.02,-21.32,-1.37,17.48,3
715008,-1.01,-0.02,-0.02,1.81,-0.51,-0.02,-21.32,-1.37,17.48,3
715022,-1.01,-0.02,-0.02,1.81,-0.1,-0.09,-21.32,-1.37,17.48,3
715033,-1.01,-0.02,-0.02,1.84,0.11,-0.07,-21.32,-1.37,17.48,3
715046,-1.01,-0.02,-0.01,1.81,0.09,-0.08,-21.35,-1.25,17.49,3
715057,-1.01,-0.02,-0.01,1.78,-0.09,-0.06,-21.35,-1.25,17.49,3
715069,-1.01,-0.02,-0.01,1.75,-0.34,-0.05,-21.35,-1.25,17.49,3
715080,-1.01,-0.02,-0.01,1.76,-1.13,-0.0,-21.35,-1.25,17.49,3
715092,-1.01,-0.02,-0.01,1.72,-1.56,0.05,-21.32,-1.3,17.44,3
715104,-1.01,-0.02,-0.01,1.69,-1.89,0.08,-21.32,-1.3,17.44,3
715116,-1.01,-0.02,-0.01,1.61,-2.48,0.07,-21.32,-1.3,17.44,3
715128,-1.01,-0.02,-0.01,1.63,-2.73,0.05,-21.32,-1.3,17.44,3
715139,-1.01,-0.02,-0.0,1.57,-2.89,0.08,-21.27,-1.51,17.29,3
715150,-1.01,-0.02,0.01,-0.02,-2.15,0.01,-21.27,-1.51,17.29,3
715161,-1.01,-0.02,-0.01,-2.79,-2.21,-0.05,-21.27,-1.51,17.29,3
715173,-1.01,-0.02,-0.01,-2.33,-3.38,0.04,-21.27,-1.51,17.29,3
715185,-1.01,-0.02,-0.01,-1.73,-4.51,0.18,-21.27,-1.51,17.29,3
715196,-1.02,-0.02,-0.02,-2.83,-3.78,0.17,-21.26,-1.46,17.29,3
715207,-1.01,-0.02,-0.03,-3.56,-2.68,0.02,-21.26,-1.46,17.29,3
715219,-1.01,-0.02,-0.03,-2.14,-1.36,-0.07,-21.26,-1.46,17.29,3
715231,-1.01,-0.02,-0.02,-1.29,-1.17,-0.08,-21.26,-1.46,17.29,3
715243,-1.01,-0.02,-0.02,-0.08,-0.86,-0.07,-21.26,-1.4,17.28,3
715255,-1.01,-0.02,-0.02,0.32,-0.55,-0.08,-21.26,-1.4,17.28,3
715266,-1.01,-0.02,-0.02,0.61,-0.02,-0.14,-21.26,-1.4,17.28,3
715279,-1.01,-0.02,-0.02,1.05,0.43,-0.13,-21.26,-1.4,17.28,3
715291,-1.01,-0.02,-0.01,1.2,0.11,-0.1,-21.11,-1.34,17.3,3
715301,-1.01,-0.02,-0.02,1.31,-0.29,-0.11,-21.11,-1.34,17.3,3
715312,-1.01,-0.02,-0.02,1.47,-0.45,-0.08,-21.11,-1.34,17.3,3
715323,-1.01,-0.02,-0.02,1.54,-0.0,-0.09,-21.11,-1.34,17.3,3
715334,-1.01,-0.02,-0.02,1.59,0.54,-0.11,-21.11,-1.34,17.3,3
715345,-1.01,-0.02,-0.01,1.64,0.97,-0.14,-21.16,-1.37,17.48,3
715357,-1.01,-0.02,-0.01,1.71,0.55,-0.13,-21.16,-1.37,17.48,3
715369,-1.01,-0.02,-0.01,1.68,-0.1,-0.08,-21.16,-1.37,17.48,3
715383,-1.01,-0.02,-0.01,1.61,-1.13,-0.03,-21.16,-1.37,17.48,3
715394,-1.01,-0.02,-0.02,1.59,-1.27,0.01,-21.22,-1.23,17.42,3
715408,-1.01,-0.02,-0.01,1.35,-1.09,-0.03,-21.22,-1.23,17.42,3
715420,-1.01,-0.02,-0.01,1.44,-1.01,-0.03,-21.22,-1.23,17.42,3
715433,-1.01,-0.02,-0.01,1.55,-1.2,-0.04,-21.22,-1.23,17.42,3
715445,-1.01,-0.02,-0.01,1.58,-1.34,-0.04,-21.18,-1.2,17.52,3
715458,-1.01,-0.02,-0.01,1.65,-1.11,-0.06,-21.18,-1.2,17.52,3
715469,-1.01,-0.02,-0.01,1.71,-1.07,-0.05,-21.18,-1.2,17.52,3
715481,-1.01,-0.02,-0.01,1.74,-1.01,-0.05,-21.18,-1.2,17.52,3
715494,-1.01,-0.02,-0.01,1.71,-1.11,-0.05,-21.19,-1.16,17.41,3
715506,-1.01,-0.02,-0.01,1.7,-1.23,-0.05,-21.19,-1.16,17.41,3
715519,-1.01,-0.02,-0.01,1.72,-1.17,-0.02,-21.19,-1.16,17.41,3
715531,-1.01,-0.02,-0.01,1.71,-1.08,-0.01,-21.19,-1.16,17.41,3
715544,-1.01,-0.01,-0.01,0.6,-0.89,0.03,-21.2,-1.23,17.31,3
715555,-1.01,-0.01,-0.02,-0.34,-0.55,0.01,-21.2,-1.23,17.31,3
715567,-1.01,-0.01,-0.02,-0.53,-0.33,-0.03,-21.2,-1.23,17.31,3
715578,-1.01,-0.02,-0.02,0.32,-0.27,-0.03,-21.2,-1.23,17.31,3
715590,-1.01,-0.02,-0.02,0.62,-0.44,-0.04,-21.21,-1.21,17.25,3
715602,-1.01,-0.02,-0.01,0.84,-0.64,-0.02,-21.21,-1.21,17.25,3
715614,-1.01,-0.02,-0.01,1.12,-0.61,-0.02,-21.21,-1.21,17.25,3
715626,-1.01,-0.02,-0.02,1.25,-0.54,-0.0,-21.21,-1.21,17.25,3
715641,-1.01,-0.01,-0.02,1.23,-0.29,0.01,-21.18,-1.2,17.26,3
715652,-1.01,-0.01,-0.02,0.73,-0.28,0.02,-21.18,-1.2,17.26,3
715663,-1.01,-0.01,-0.01,-0.39,-0.73,0.02,-21.18,-1.2,17.26,3
715675,-1.01,-0.02,-0.01,-0.49,-0.6,-0.01,-21.18,-1.2,17.26,3
715688,-1.01,-0.02,-0.01,-0.01,-0.74,-0.01,-21.17,-1.18,17.46,3
715700,-1.01,-0.02,-0.01,0.64,-0.97,-0.05,-21.17,-1.18,17.46,3
715712,-1.01,-0.02,-0.01,0.82,-1.13,-0.07,-21.17,-1.18,17.46,3
715726,-1.01,-0.02,-0.01,1.2,-1.41,-0.04,-21.17,-1.18,17.46,3
715739,-1.01,-0.02,-0.01,1.31,-1.43,-0.02,-21.13,-1.18,17.55,3
715750,-1.01,-0.02,-0.01,1.5,-1.45,-0.01,-21.13,-1.18,17.55,3
715761,-1.01,-0.02,-0.01,1.55,-1.44,-0.01,-21.13,-1.18,17.55,3
715773,-1.01,-0.02,-0.01,1.56,-1.57,0.01,-21.13,-1.18,17.55,3
715784,-1.01,-0.02,-0.01,1.59,-1.69,0.05,-21.13,-1.18,17.55,3
715796,-1.01,-0.02,-0.01,1.65,-1.71,0.08,-21.04,-1.17,17.82,3
715808,-1.01,-0.02,-0.02,1.67,-1.6,0.08,-21.04,-1.17,17.82,3
715820,-1.01,-0.02,-0.02,1.69,-0.73,-0.04,-21.04,-1.17,17.82,3
715832,-1.01,-0.02,-0.01,1.73,0.0,-0.08,-21.04,-1.17,17.82,3
715844,-1.01,-0.02,-0.01,1.76,0.41,-0.07,-21.11,-1.17,17.83,3
715855,-1.01,-0.02,-0.01,1.72,0.31,-0.07,-21.11,-1.17,17.83,3
715867,-1.01,-0.02,-0.01,1.72,0.01,-0.07,-21.11,-1.17,17.83,3
715881,-1.01,-0.02,-0.01,1.78,-0.3,-0.05,-21.11,-1.17,17.83,3
715892,-1.01,-0.02,-0.01,1.78,-0.17,-0.05,-21.14,-1.12,17.89,3
715905,-1.01,-0.02,-0.01,1.81,0.64,-0.04,-21.14,-1.12,17.89,3
715916,-1.01,-0.02,-0.01,2.03,1.12,-0.01,-21.14,-1.12,17.89,3
715927,-1.01,-0.02,-0.01,2.01,1.68,0.02,-21.14,-1.12,17.89,3
715938,-1.01,-0.02,-0.01,1.95,1.95,-0.0,-21.11,-1.28,17.93,3
715949,-1.01,-0.02,-0.01,1.91,1.85,0.04,-21.11,-1.28,17.93,3
715961,-1.01,-0.02,-0.01,2.2,1.39,0.0,-21.11,-1.28,17.93,3
715975,-1.0,-0.01,-0.03,5.91,-1.57,0.01,-21.11,-1.28,17.93,3
715987,-1.03,-0.02,0.0,9.29,-4.05,0.11,-21.27,-1.27,17.91,3
715999,-1.03,-0.02,0.01,8.03,-2.77,0.1,-21.27,-1.27,17.91,3
716010,-1.02,-0.02,0.0,6.61,-2.36,0.05,-21.27,-1.27,17.91,3
716020,-1.02,-0.02,-0.01,5.54,-1.68,0.04,-21.27,-1.27,17.91,3
716031,-1.02,-0.02,-0.01,4.74,-0.54,-0.01,-21.27,-1.27,17.91,3
716045,-1.03,-0.01,-0.04,9.67,-3.32,0.12,-21.36,-1.36,17.82,3
716055,-1.02,-0.01,-0.04,14.76,-4.25,0.22,-21.36,-1.36,17.82,3
716068,-1.01,-0.01,-0.02,18.2,-2.85,0.23,-21.36,-1.36,17.82,3
716079,-1.01,-0.01,-0.02,17.92,-1.38,0.1,-21.36,-1.36,17.82,3
716090,-1.01,-0.01,-0.02,17.57,-0.9,0.2,-21.29,-1.44,17.88,3
716103,-1.01,-0.01,-0.02,19.45,-1.54,0.23,-21.29,-1.44,17.88,3
716114,-1.01,-0.01,-0.02,21.08,-2.34,0.32,-21.29,-1.44,17.88,3
716125,-1.03,-0.02,-0.01,22.15,-2.57,0.36,-21.29,-1.44,17.88,3
716139,-1.03,-0.02,-0.01,21.45,-1.43,0.32,-21.23,-1.44,17.59,3
716149,-1.03,-0.02,-0.0,20.44,-0.59,0.32,-21.23,-1.44,17.59,3
716160,-1.02,-0.02,0.0,19.96,-0.41,0.27,-21.23,-1.44,17.59,3
716172,-1.02,-0.02,-0.0,17.92,-0.6,0.24,-21.23,-1.44,17.59,3
716184,-1.02,-0.02,-0.01,17.96,-1.45,0.31,-21.23,-1.44,17.59,3
716196,-1.01,-0.01,-0.03,19.89,-2.02,0.43,-21.19,-1.53,17.39,3
716207,-1.02,-0.02,-0.02,21.25,-1.85,0.4,-21.19,-1.53,17.39,3
716219,-1.01,-0.02,-0.02,22.15,-1.55,0.35,-21.19,-1.53,17.39,3
716233,-1.02,-0.03,0.02,20.48,-0.41,0.41,-21.19,-1.53,17.39,3
716244,-1.01,-0.03,0.02,17.01,-0.43,0.34,-21.17,-1.73,17.19,3
716257,-1.01,-0.02,0.01,11.82,-1.46,0.2,-21.17,-1.73,17.19,3
716268,-1.01,-0.02,-0.01,12.05,-2.33,0.24,-21.17,-1.73,17.19,3
716279,-1.01,-0.02,-0.02,12.34,-2.45,0.27,-21.17,-1.73,17.19,3
716292,-1.01,-0.02,-0.0,10.88,-0.85,0.22,-21.19,-2.02,16.78,3
716303,-1.01,-0.01,-0.01,8.97,-0.58,0.17,-21.19,-2.02,16.78,3
716313,-1.0,-0.01,-0.05,8.46,-1.07,0.09,-21.19,-2.02,16.78,3
716325,-1.01,-0.01,-0.06,19.39,-3.19,0.52,-21.19,-2.02,16.78,3
716337,-1.01,-0.02,-0.03,22.5,-1.76,0.58,-21.2,-2.14,16.67,3
716348,-1.01,-0.02,-0.02,23.96,-1.07,0.51,-21.2,-2.14,16.67,3
716361,-1.01,-0.02,-0.0,24.38,-0.27,0.38,-21.2,-2.14,16.67,3
716373,-1.0,-0.02,-0.0,23.35,-0.54,0.32,-21.2,-2.14,16.67,3
716388,-1.01,-0.02,0.0,20.88,-2.68,0.5,-21.12,-2.22,16.34,3
716399,-1.02,-0.02,-0.01,18.64,-2.8,0.47,-21.12,-2.22,16.34,3
716410,-1.02,-0.02,-0.01,17.98,-3.3,0.58,-21.12,-2.22,16.34,3
716422,-1.02,-0.02,-0.02,18.09,-3.73,0.61,-21.12,-2.22,16.34,3
716434,-1.01,-0.02,-0.02,18.69,-3.47,0.54,-21.12,-2.22,16.34,3
716446,-1.01,-0.02,-0.01,20.12,-2.55,0.61,-21.13,-2.4,16.2,3
716457,-1.02,-0.02,-0.02,20.96,-1.02,0.47,-21.13,-2.4,16.2,3
716468,-1.01,-0.02,-0.02,20.48,-0.0,0.36,-21.13,-2.4,16.2,3
716480,-1.02,-0.02,-0.01,20.36,1.0,0.23,-21.13,-2.4,16.2,3
716492,-1.01,-0.02,-0.01,21.46,1.06,0.32,-21.11,-2.56,15.95,3
716502,-1.01,-0.02,-0.01,20.41,0.3,0.29,-21.11,-2.56,15.95,3
716512,-1.01,-0.02,-0.02,18.97,-0.58,0.25,-21.11,-2.56,15.95,3
716523,-1.01,-0.01,-0.02,16.87,-2.01,0.38,-21.11,-2.56,15.95,3
716534,-1.01,-0.01,-0.03,16.96,-1.85,0.39,-21.11,-2.56,15.95,3
716545,-1.01,-0.01,-0.03,17.96,-1.14,0.39,-21.09,-2.73,15.9,3
716559,-1.01,-0.01,-0.03,19.95,1.91,0.19,-21.09,-2.73,15.9,3
716570,-1.01,-0.01,-0.01,20.02,3.73,0.12,-21.09,-2.73,15.9,3
716584,-1.01,-0.02,0.01,16.46,4.28,0.12,-21.09,-2.73,15.9,3
716595,-1.0,-0.02,0.01,13.65,3.3,0.11,-21.08,-2.9,15.6,3
716606,-1.0,-0.02,0.01,11.51,1.4,0.11,-21.08,-2.9,15.6,3
716618,-1.01,-0.01,-0.01,9.21,-2.22,0.08,-21.08,-2.9,15.6,3
716630,-1.01,-0.02,-0.02,10.04,-2.51,0.08,-21.08,-2.9,15.6,3
716641,-1.01,-0.02,-0.02,10.61,-1.82,0.05,-21.17,-3.05,15.39,3
716653,-1.0,-0.01,-0.02,10.59,0.04,0.0,-21.17,-3.05,15.39,3
716665,-1.0,-0.01,-0.03,11.16,-0.18,0.19,-21.17,-3.05,15.39,3
716679,-1.0,-0.01,-0.01,12.58,-0.36,0.26,-21.17,-3.05,15.39,3
716690,-1.0,-0.01,-0.02,13.41,-0.19,0.22,-21.16,-3.19,15.06,3
716702,-1.0,-0.01,-0.01,14.04,0.06,0.18,-21.16,-3.19,15.06,3
716714,-1.01,-0.02,-0.01,12.37,-0.94,0.16,-21.16,-3.19,15.06,3
716724,-1.01,-0.02,-0.0,10.38,-0.69,0.11,-21.16,-3.19,15.06,3
716736,-1.01,-0.02,-0.01,8.51,-1.06,0.06,-21.25,-3.32,14.95,3
716748,-1.01,-0.02,-0.01,7.05,-1.45,0.07,-21.25,-3.32,14.95,3
716759,-1.01,-0.02,-0.01,5.91,-1.29,0.03,-21.25,-3.32,14.95,3
716770,-1.01,-0.02,-0.01,5.03,-1.14,0.02,-21.25,-3.32,14.95,3
716782,-1.01,-0.0,-0.03,4.85,-1.18,0.05,-21.25,-3.32,14.95,3
716793,-1.01,-0.01,-0.03,7.25,-1.85,0.08,-21.23,-3.49,14.43,3
716805,-1.01,-0.01,-0.04,10.13,-2.88,0.14,-21.23,-3.49,14.43,3
716817,-1.01,-0.02,-0.01,15.7,-5.12,0.58,-21.23,-3.49,14.43,3
716829,-1.01,-0.02,-0.01,16.74,-4.6,0.57,-21.23,-3.49,14.43,3
716841,-1.01,-0.02,-0.01,16.66,-4.34,0.49,-21.19,-3.58,14.24,3
716852,-1.02,-0.02,-0.01,17.55,-4.78,0.53,-21.19,-3.58,14.24,3
716863,-1.01,-0.02,-0.03,20.08,-4.91,0.63,-21.19,-3.58,14.24,3
716875,-1.01,-0.02,-0.03,26.17,-6.07,1.11,-21.19,-3.58,14.24,3
716887,-1.02,-0.03,-0.01,25.08,-6.99,1.23,-21.24,-3.77,14.05,3
716898,-1.02,-0.03,-0.01,22.25,-6.82,1.09,-21.24,-3.77,14.05,3
716911,-1.01,-0.03,-0.01,15.26,-5.18,0.76,-21.24,-3.77,14.05,3
716921,-1.01,-0.03,-0.01,12.3,-4.39,0.58,-21.24,-3.77,14.05,3
716932,-1.01,-0.02,-0.02,9.98,-3.82,0.47,-21.24,-3.77,14.05,3
716946,-1.01,-0.02,-0.02,6.76,-3.71,0.44,-21.18,-3.74,13.72,3
716957,-1.01,-0.02,-0.02,5.63,-3.93,0.44,-21.18,-3.74,13.72,3
716971,-1.01,-0.02,-0.03,4.11,-3.92,0.44,-21.18,-3.74,13.72,3
716983,-1.01,-0.02,-0.03,3.58,-3.49,0.39,-21.18,-3.74,13.72,3
716995,-1.01,-0.02,-0.03,2.91,-2.33,0.26,-21.15,-3.83,13.91,3
717006,-1.01,-0.02,-0.03,2.63,-2.27,0.22,-21.15,-3.83,13.91,3
717018,-1.01,-0.02,-0.03,2.44,-2.48,0.21,-21.15,-3.83,13.91,3
717032,-1.01,-0.02,-0.03,2.16,-2.91,0.28,-21.15,-3.83,13.91,3
717043,-1.01,-0.02,-0.03,2.06,-2.92,0.32,-21.01,-3.91,13.85,3
717055,-1.01,-0.02,-0.03,1.93,-2.39,0.22,-21.01,-3.91,13.85,3
717066,-1.01,-0.02,-0.04,1.84,-1.59,0.09,-21.01,-3.91,13.85,3
717078,-1.01,-0.02,-0.03,1.68,-0.63,-0.08,-21.01,-3.91,13.85,3
717091,-1.01,-0.02,-0.01,-1.25,2.08,-0.43,-21.02,-3.92,14.02,3
717102,-1.01,-0.02,-0.02,-3.25,2.74,-0.51,-21.02,-3.92,14.02,3
717114,-1.01,-0.02,-0.02,-3.76,1.97,-0.49,-21.02,-3.92,14.02,3
717126,-1.01,-0.02,-0.02,-2.12,-0.7,-0.08,-21.02,-3.92,14.02,3
717137,-1.01,-0.02,-0.01,-1.54,-1.74,0.05,-20.98,-3.94,14.05,3
717150,-1.01,-0.02,-0.01,-5.04,-1.0,-0.32,-20.98,-3.94,14.05,3
717161,-1.01,-0.02,-0.02,-7.39,-0.09,-0.57,-20.98,-3.94,14.05,3
717173,-1.01,-0.02,-0.02,-10.12,1.15,-0.71,-20.98,-3.94,14.05,3
717184,-1.01,-0.02,-0.02,-13.62,1.79,-0.87,-20.98,-3.94,14.05,3
717196,-1.01,-0.02,-0.05,-13.86,1.38,-0.95,-21.02,-3.99,13.91,3
717208,-1.01,-0.02,-0.04,-12.43,0.5,-0.87,-21.02,-3.99,13.91,3
717220,-1.01,-0.02,-0.03,-12.16,1.1,-0.65,-21.02,-3.99,13.91,3
717232,-1.01,-0.01,-0.05,-11.53,0.83,-0.51,-21.02,-3.99,13.91,3
717244,-1.01,-0.01,-0.05,-6.93,-0.69,-0.25,-21.05,-4.04,14.07,3
717255,-1.01,-0.01,-0.04,-5.05,-1.31,-0.17,-21.05,-4.04,14.07,3
717266,-1.01,-0.01,-0.04,-3.55,-2.33,-0.01,-21.05,-4.04,14.07,3
717280,-1.01,-0.02,-0.04,-1.46,-3.86,0.26,-21.05,-4.04,14.07,3
717292,-1.01,-0.02,-0.03,-0.72,-4.26,0.35,-21.06,-4.0,14.08,3
717305,-1.02,-0.02,-0.03,0.89,-4.47,0.51,-21.06,-4.0,14.08,3
717316,-1.02,-0.03,-0.04,3.28,-2.09,0.28,-21.06,-4.0,14.08,3
717326,-1.01,-0.01,-0.04,5.96,2.4,-0.19,-21.06,-4.0,14.08,3
717337,-1.01,-0.01,-0.03,5.51,3.52,-0.32,-21.05,-3.89,14.3,3
717349,-1.01,-0.01,-0.02,4.1,2.36,-0.22,-21.05,-3.89,14.3,3
717361,-1.01,-0.01,-0.02,3.72,1.52,-0.17,-21.05,-3.89,14.3,3
717371,-1.01,-0.01,-0.02,3.75,-0.15,0.02,-21.05,-3.89,14.3,3
717383,-1.01,-0.02,-0.03,3.13,-2.08,0.21,-21.05,-3.89,14.3,3
717394,-1.01,-0.02,-0.03,2.84,-1.74,0.17,-21.19,-3.94,14.43,3
717406,-1.01,-0.02,-0.03,2.59,-0.85,0.07,-21.19,-3.94,14.43,3
717418,-1.01,-0.02,-0.02,2.26,0.4,-0.12,-21.19,-3.94,14.43,3
717430,-1.01,-0.02,-0.02,2.15,0.34,-0.14,-21.19,-3.94,14.43,3
717442,-1.01,-0.02,-0.02,2.02,-0.9,0.0,-21.18,-3.93,14.48,3
717453,-1.01,-0.02,-0.02,1.98,-1.62,0.04,-21.18,-3.93,14.48,3
717465,-1.01,-0.02,-0.02,1.93,-2.07,0.1,-21.18,-3.93,14.48,3
717476,-1.01,-0.02,-0.02,1.93,-2.34,0.16,-21.18,-3.93,14.48,3
717488,-1.01,-0.02,-0.03,1.88,-2.28,0.11,-21.15,-3.99,14.5,3
717500,-1.01,-0.02,-0.03,1.86,-2.2,0.13,-21.15,-3.99,14.5,3
717512,-1.01,-0.02,-0.02,1.85,-2.13,0.11,-21.15,-3.99,14.5,3
717522,-1.01,-0.02,-0.03,2.06,-2.59,0.18,-21.15,-3.99,14.5,3
717533,-1.01,-0.02,-0.03,3.11,-3.65,0.34,-21.15,-3.99,14.5,3
717546,-1.01,-0.02,-0.02,4.57,-5.01,0.53,-21.01,-4.04,14.7,3
717558,-1.01,-0.01,-0.02,4.52,-5.44,0.6,-21.01,-4.04,14.7,3
717572,-1.01,-0.02,-0.04,6.8,-4.76,0.62,-21.01,-4.04,14.7,3
717584,-1.01,-0.01,-0.05,9.62,-4.03,0.56,-21.01,-4.04,14.7,3
717595,-1.01,-0.01,-0.05,11.7,-4.76,0.75,-21.05,-3.93,14.78,3
717607,-1.02,-0.02,-0.03,12.94,-6.42,1.24,-21.05,-3.93,14.78,3
717618,-1.02,-0.02,-0.02,12.3,-6.78,1.35,-21.05,-3.93,14.78,3
717629,-1.01,-0.02,-0.02,10.57,-6.67,1.27,-21.05,-3.93,14.78,3
717642,-1.01,-0.02,-0.04,7.14,-6.31,1.06,-21.15,-3.86,14.66,3
717654,-1.01,-0.02,-0.04,5.96,-5.63,0.92,-21.15,-3.86,14.66,3
717665,-1.01,-0.02,-0.04,4.3,-3.53,0.51,-21.15,-3.86,14.66,3
717676,-1.01,-0.02,-0.04,3.72,-2.35,0.32,-21.15,-3.86,14.66,3
717687,-1.01,-0.02,-0.04,3.26,-1.32,0.15,-21.12,-3.86,14.64,3
717701,-1.01,-0.02,-0.04,2.73,-0.75,0.0,-21.12,-3.86,14.64,3
717711,-1.01,-0.02,-0.04,2.83,-1.26,0.03,-21.12,-3.86,14.64,3
717722,-1.01,-0.02,-0.04,3.48,-2.1,0.13,-21.12,-3.86,14.64,3
717734,-1.01,-0.02,-0.04,4.72,-3.43,0.44,-21.12,-3.86,14.64,3
717746,-1.01,-0.02,-0.04,4.97,-3.62,0.52,-21.18,-3.87,14.71,3
717757,-1.01,-0.02,-0.04,4.9,-3.44,0.53,-21.18,-3.87,14.71,3
717769,-1.01,-0.03,-0.05,6.29,-1.14,0.28,-21.18,-3.87,14.71,3
717780,-1.01,-0.02,-0.05,7.34,1.44,-0.04,-21.18,-3.87,14.71,3
717791,-1.01,-0.02,-0.04,6.7,2.08,-0.12,-21.22,-3.78,14.63,3
717805,-1.01,-0.02,-0.05,5.13,1.1,-0.1,-21.22,-3.78,14.63,3
717815,-1.01,-0.02,-0.05,5.58,0.4,-0.02,-21.22,-3.78,14.63,3
717826,-1.01,-0.02,-0.04,6.35,-0.46,0.1,-21.22,-3.78,14.63,3
717840,-1.01,-0.02,-0.05,6.7,-1.27,0.17,-21.1,-3.71,14.49,3
717851,-1.01,-0.02,-0.04,7.27,-1.51,0.23,-21.1,-3.71,14.49,3
717863,-1.01,-0.02,-0.04,9.83,-0.07,0.26,-21.1,-3.71,14.49,3
717874,-1.01,-0.02,-0.06,11.82,2.24,-0.03,-21.1,-3.71,14.49,3
717885,-1.01,-0.02,-0.05,13.19,2.8,-0.05,-20.96,-3.68,14.53,3
717899,-1.02,-0.02,-0.04,16.41,6.2,-0.38,-20.96,-3.68,14.53,3
717910,-1.01,-0.02,-0.03,17.23,9.65,-0.81,-20.96,-3.68,14.53,3
717924,-1.01,-0.02,-0.03,15.87,10.86,-0.98,-20.96,-3.68,14.53,3
717935,-1.0,-0.02,-0.03,15.56,9.5,-0.83,-20.91,-3.71,14.47,3
717947,-1.0,-0.01,-0.03,16.26,7.32,-0.63,-20.91,-3.71,14.47,3
717959,-1.0,-0.01,-0.03,19.66,0.19,0.32,-20.91,-3.71,14.47,3
717971,-1.01,-0.01,-0.02,20.43,-2.69,0.74,-20.91,-3.71,14.47,3
717985,-1.01,-0.02,-0.01,18.9,-5.8,1.18,-20.94,-3.83,14.0,3
717996,-1.01,-0.02,-0.02,17.3,-6.52,1.18,-20.94,-3.83,14.0,3
718008,-1.02,-0.02,-0.02,15.27,-5.11,0.95,-20.94,-3.83,14.0,3
718019,-1.02,-0.02,-0.03,14.42,-3.34,0.76,-20.94,-3.83,14.0,3
718030,-1.01,-0.02,-0.03,13.42,-1.42,0.55,-20.94,-3.83,14.0,3
718041,-1.01,-0.02,-0.03,11.92,0.48,0.28,-20.94,-3.97,13.69,3
718053,-1.01,-0.02,-0.02,9.06,2.98,-0.25,-20.94,-3.97,13.69,3
718065,-1.01,-0.02,-0.02,6.99,2.28,-0.28,-20.94,-3.97,13.69,3
718079,-1.01,-0.02,-0.03,3.12,0.96,-0.29,-20.94,-3.97,13.69,3
718090,-1.01,-0.02,-0.03,2.49,0.36,-0.28,-21.07,-4.13,13.51,3
718103,-1.01,-0.02,-0.04,2.26,0.77,-0.33,-21.07,-4.13,13.51,3
718114,-1.01,-0.02,-0.04,2.65,1.07,-0.35,-21.07,-4.13,13.51,3
718126,-1.01,-0.02,-0.04,3.4,1.14,-0.34,-21.07,-4.13,13.51,3
718139,-1.01,-0.01,-0.03,4.77,0.87,-0.1,-21.05,-4.21,13.37,3
718150,-1.0,-0.01,-0.03,5.2,0.54,-0.09,-21.05,-4.21,13.37,3
718163,-1.01,-0.01,-0.03,5.54,-0.38,0.07,-21.05,-4.21,13.37,3
718174,-1.01,-0.02,-0.02,5.7,-1.14,0.15,-21.05,-4.21,13.37,3
718185,-1.01,-0.02,-0.02,5.73,-2.06,0.29,-20.92,-4.36,13.23,3
718199,-1.01,-0.02,-0.02,4.88,-3.18,0.42,-20.92,-4.36,13.23,3
718211,-1.01,-0.02,-0.02,4.18,-3.36,0.44,-20.92,-4.36,13.23,3
718225,-1.01,-0.01,-0.03,3.05,-3.41,0.44,-20.92,-4.36,13.23,3
718236,-1.01,-0.01,-0.03,2.35,-2.63,0.26,-20.96,-4.33,13.24,3
718249,-1.01,-0.01,-0.03,0.93,0.33,-0.19,-20.96,-4.33,13.24,3
718260,-1.01,-0.01,-0.03,0.34,1.36,-0.28,-20.96,-4.33,13.24,3
718271,-1.01,-0.02,-0.03,-0.07,1.72,-0.3,-20.96,-4.33,13.24,3
718282,-1.01,-0.02,-0.02,-0.41,1.29,-0.25,-20.96,-4.33,13.24,3
718295,-1.01,-0.02,-0.03,-0.05,-0.43,-0.09,-21.0,-4.38,13.04,3
718307,-1.01,-0.02,-0.03,0.3,-0.76,-0.06,-21.0,-4.38,13.04,3
718319,-1.01,-0.02,-0.03,0.81,-0.25,-0.12,-21.0,-4.38,13.04,3
718331,-1.01,-0.02,-0.03,0.98,0.22,-0.17,-21.0,-4.38,13.04,3
718343,-1.01,-0.02,-0.03,1.06,0.62,-0.22,-20.89,-4.49,12.92,3
718354,-1.01,-0.02,-0.03,0.95,0.68,-0.27,-20.89,-4.49,12.92,3
718366,-1.01,-0.02,-0.03,0.95,1.02,-0.26,-20.89,-4.49,12.92,3
718377,-1.01,-0.02,-0.03,0.46,1.21,-0.24,-20.89,-4.49,12.92,3
718390,-1.01,-0.02,-0.02,0.31,1.01,-0.2,-20.81,-4.54,12.93,3
718401,-1.01,-0.02,-0.02,0.36,0.85,-0.17,-20.81,-4.54,12.93,3
718414,-1.01,-0.02,-0.02,0.05,0.03,-0.16,-20.81,-4.54,12.93,3
718425,-1.01,-0.02,-0.03,0.05,-0.03,-0.16,-20.81,-4.54,12.93,3
718438,-1.01,-0.02,-0.03,0.29,0.87,-0.25,-20.83,-4.62,12.79,3
718449,-1.01,-0.02,-0.02,0.59,1.42,-0.26,-20.83,-4.62,12.79,3
718461,-1.01,-0.02,-0.02,0.82,1.58,-0.27,-20.83,-4.62,12.79,3
718472,-1.01,-0.02,-0.02,1.21,0.72,-0.19,-20.83,-4.62,12.79,3
718484,-1.01,-0.02,-0.02,1.34,0.06,-0.09,-20.8,-4.57,12.75,3
718496,-1.01,-0.02,-0.02,1.45,-0.52,-0.03,-20.8,-4.57,12.75,3
718508,-1.01,-0.02,-0.02,1.54,-0.75,-0.01,-20.8,-4.57,12.75,3
718520,-1.01,-0.02,-0.02,1.62,-0.6,-0.0,-20.8,-4.57,12.75,3
718535,-1.01,-0.02,-0.02,1.69,-0.37,0.0,-20.84,-4.52,12.83,3
718547,-1.01,-0.02,-0.02,1.66,-0.55,0.01,-20.84,-4.52,12.83,3
718557,-1.01,-0.02,-0.02,1.62,-0.94,-0.0,-20.84,-4.52,12.83,3
718568,-1.01,-0.02,-0.02,1.61,-1.34,0.01,-20.84,-4.52,12.83,3
718580,-1.01,-0.02,-0.02,1.65,-1.73,0.04,-20.84,-4.52,12.83,3
718591,-1.01,-0.02,-0.03,1.71,-1.68,0.04,-20.94,-4.54,12.64,3
718603,-1.01,-0.02,-0.02,2.09,-1.14,0.03,-20.94,-4.54,12.64,3
718615,-1.01,-0.02,-0.02,2.08,-0.79,-0.04,-20.94,-4.54,12.64,3
718629,-1.01,-0.02,-0.02,2.03,-0.34,-0.09,-20.94,-4.54,12.64,3
718640,-1.01,-0.02,-0.02,2.0,-0.28,-0.11,-20.98,-4.56,12.79,3
718651,-1.01,-0.02,-0.02,1.96,-0.33,-0.08,-20.98,-4.56,12.79,3
718663,-1.01,-0.02,-0.02,1.84,-0.29,-0.12,-20.98,-4.56,12.79,3
718675,-1.01,-0.02,-0.02,1.84,-0.21,-0.15,-20.98,-4.56,12.79,3
718688,-1.01,-0.02,-0.02,1.76,-0.36,-0.07,-20.99,-4.51,12.7,3
718700,-1.01,-0.02,-0.01,1.72,-0.78,-0.04,-20.99,-4.51,12.7,3
718714,-1.01,-0.02,-0.01,1.69,-2.21,0.04,-20.99,-4.51,12.7,3
718726,-1.01,-0.02,-0.02,1.69,-2.99,0.11,-20.99,-4.51,12.7,3
718738,-1.01,-0.02,-0.02,1.78,-3.48,0.18,-21.04,-4.44,12.63,3
718749,-1.01,-0.02,-0.03,1.77,-2.99,0.16,-21.04,-4.44,12.63,3
718760,-1.01,-0.02,-0.03,1.77,-2.23,0.09,-21.04,-4.44,12.63,3
718771,-1.01,-0.02,-0.03,1.77,-1.47,0.01,-21.04,-4.44,12.63,3
718784,-1.01,-0.02,-0.02,1.74,-0.81,-0.04,-21.07,-4.44,12.56,3
718795,-1.01,-0.02,-0.02,1.72,-0.29,-0.07,-21.07,-4.44,12.56,3
718807,-1.01,-0.02,-0.02,1.68,0.04,-0.16,-21.07,-4.44,12.56,3
718818,-1.01,-0.02,-0.02,1.7,0.04,-0.14,-21.07,-4.44,12.56,3
718830,-1.01,-0.02,-0.02,1.73,-0.12,-0.11,-21.07,-4.44,12.56,3
718843,-1.01,-0.02,-0.02,1.74,-0.68,-0.06,-21.07,-4.51,12.61,3
718855,-1.01,-0.02,-0.02,1.73,-0.61,-0.08,-21.07,-4.51,12.61,3
718869,-1.01,-0.02,-0.02,1.72,-0.02,-0.14,-21.07,-4.51,12.61,3
718880,-1.01,-0.02,-0.02,1.63,0.18,-0.14,-21.07,-4.51,12.61,3
718893,-1.01,-0.02,-0.01,0.68,0.28,-0.14,-20.99,-4.45,12.69,3
718904,-1.01,-0.02,-0.02,-0.06,0.38,-0.2,-20.99,-4.45,12.69,3
718916,-1.01,-0.02,-0.02,0.19,-0.11,-0.16,-20.99,-4.45,12.69,3
718927,-1.01,-0.02,-0.02,0.83,-0.54,-0.1,-20.99,-4.45,12.69,3
718940,-1.01,-0.02,-0.02,1.05,-0.64,-0.09,-20.9,-4.54,12.63,3
718951,-1.01,-0.02,-0.02,1.19,-0.59,-0.1,-20.9,-4.54,12.63,3
718963,-1.01,-0.02,-0.02,1.28,-0.31,-0.13,-20.9,-4.54,12.63,3
718975,-1.01,-0.02,-0.02,1.4,-0.14,-0.13,-20.9,-4.54,12.63,3
718987,-1.01,-0.02,-0.02,1.54,-0.34,-0.1,-20.93,-4.48,12.5,3
718999,-1.01,-0.02,-0.02,1.57,-0.6,-0.05,-20.93,-4.48,12.5,3
719010,-1.01,-0.02,-0.02,1.6,-0.59,-0.07,-20.93,-4.48,12.5,3
719022,-1.01,-0.02,-0.02,1.67,0.14,-0.12,-20.93,-4.48,12.5,3
719034,-1.01,-0.02,-0.02,1.72,0.56,-0.15,-20.95,-4.46,12.59,3
719046,-1.01,-0.02,-0.02,1.73,0.94,-0.17,-20.95,-4.46,12.59,3
719058,-1.01,-0.01,-0.02,1.13,0.98,-0.15,-20.95,-4.46,12.59,3
719070,-1.01,-0.01,-0.01,0.18,0.3,-0.1,-20.95,-4.46,12.59,3
719085,-1.01,-0.02,-0.01,-2.04,-0.71,-0.16,-20.88,-4.51,12.73,3
719097,-1.01,-0.02,-0.01,-1.84,-0.61,-0.17,-20.88,-4.51,12.73,3
719109,-1.01,-0.02,-0.01,-0.43,0.07,-0.16,-20.88,-4.51,12.73,3
719120,-1.01,-0.02,-0.01,0.05,0.05,-0.14,-20.88,-4.51,12.73,3
719132,-1.01,-0.02,-0.01,0.42,-0.23,-0.09,-20.88,-4.51,12.73,3
719145,-1.01,-0.02,-0.01,0.99,-1.34,0.03,-20.9,-4.5,12.67,3
719157,-1.01,-0.02,-0.01,1.15,-1.78,0.04,-20.9,-4.5,12.67,3
719169,-1.01,-0.02,-0.02,1.34,-1.91,0.01,-20.9,-4.5,12.67,3
719181,-1.01,-0.02,-0.02,1.41,-1.44,-0.03,-20.9,-4.5,12.67,3
719192,-1.01,-0.02,-0.02,1.49,-0.88,-0.06,-20.96,-4.47,12.85,3
719204,-1.01,-0.02,-0.01,1.56,0.36,-0.13,-20.96,-4.47,12.85,3
719215,-1.01,-0.02,-0.01,1.6,0.39,-0.13,-20.96,-4.47,12.85,3
719228,-1.01,-0.02,-0.01,1.65,-0.61,-0.05,-20.96,-4.47,12.85,3
719240,-1.01,-0.02,-0.01,1.7,-1.21,0.01,-20.91,-4.46,12.77,3
719252,-1.01,-0.02,-0.02,1.98,-1.83,0.05,-20.91,-4.46,12.77,3
719264,-1.01,-0.02,-0.02,3.77,-1.91,0.14,-20.91,-4.46,12.77,3
719276,-1.01,-0.02,-0.02,4.93,-1.93,0.14,-20.91,-4.46,12.77,3
719288,-1.01,-0.02,-0.02,6.6,-2.42,0.22,-20.89,-4.5,12.83,3
719300,-1.01,-0.01,-0.01,6.16,-2.4,0.18,-20.89,-4.5,12.83,3
719312,-1.01,-0.01,-0.01,5.26,-2.48,0.16,-20.89,-4.5,12.83,3
719324,-1.01,-0.01,-0.01,3.9,-2.85,0.19,-20.89,-4.5,12.83,3
719336,-1.01,-0.01,-0.01,3.43,-3.14,0.22,-21.0,-4.62,12.82,3
719350,-1.01,-0.01,-0.02,2.83,-3.03,0.16,-21.0,-4.62,12.82,3
719361,-1.01,-0.02,-0.02,2.62,-2.48,0.1,-21.0,-4.62,12.82,3
719375,-1.01,-0.02,-0.02,2.31,-2.32,0.09,-21.0,-4.62,12.82,3
719387,-1.01,-0.02,-0.01,2.21,-2.75,0.15,-20.95,-4.64,12.74,3
719399,-1.01,-0.01,-0.03,3.29,-4.52,0.28,-20.95,-4.64,12.74,3
719411,-1.01,-0.01,-0.04,5.41,-5.42,0.42,-20.95,-4.64,12.74,3
719422,-1.01,-0.01,-0.04,7.47,-5.42,0.49,-20.95,-4.64,12.74,3
719435,-1.0,-0.01,-0.04,11.18,-5.11,0.68,-21.02,-4.68,12.82,3
719446,-1.01,-0.01,-0.03,11.88,-4.44,0.71,-21.02,-4.68,12.82,3
719458,-1.01,-0.01,-0.02,11.24,-3.34,0.5,-21.02,-4.68,12.82,3
719470,-1.01,-0.02,-0.02,10.09,-2.25,0.31,-21.02,-4.68,12.82,3
719482,-1.01,-0.02,-0.02,8.89,-1.88,0.29,-20.95,-4.63,12.72,3
719494,-1.01,-0.02,-0.03,7.58,-3.14,0.37,-20.95,-4.63,12.72,3
719505,-1.01,-0.02,-0.03,7.78,-3.3,0.4,-20.95,-4.63,12.72,3
719517,-1.01,-0.02,-0.03,7.57,-2.99,0.42,-20.95,-4.63,12.72,3
719528,-1.01,-0.02,-0.03,5.63,-1.37,0.19,-20.95,-4.63,12.72,3
719540,-1.01,-0.02,-0.03,4.83,-0.91,0.12,-20.99,-4.58,12.88,3
719551,-1.01,-0.02,-0.03,4.55,-0.94,0.09,-20.99,-4.58,12.88,3
719564,-1.01,-0.02,-0.04,7.18,-2.43,0.27,-20.99,-4.58,12.88,3
719576,-1.01,-0.02,-0.03,8.92,-2.31,0.43,-20.99,-4.58,12.88,3
719589,-1.01,-0.02,-0.03,11.27,0.25,0.2,-21.1,-4.43,12.67,3
719600,-1.01,-0.02,-0.02,11.43,0.8,0.18,-21.1,-4.43,12.67,3
719612,-1.0,-0.01,-0.02,10.94,0.78,0.15,-21.1,-4.43,12.67,3
719623,-1.0,-0.01,-0.03,9.88,-2.02,0.37,-21.1,-4.43,12.67,3
719635,-1.01,-0.02,-0.03,10.02,-2.66,0.46,-21.13,-4.49,12.53,3
719647,-1.01,-0.02,-0.02,10.16,-2.61,0.51,-21.13,-4.49,12.53,3
719659,-1.01,-0.02,-0.02,8.27,-1.23,0.31,-21.13,-4.49,12.53,3
719671,-1.01,-0.02,-0.02,6.89,-0.97,0.22,-21.13,-4.49,12.53,3
719682,-1.01,-0.02,-0.02,5.76,-1.14,0.19,-21.15,-4.45,12.4,3
719693,-1.01,-0.02,-0.02,4.84,-1.69,0.24,-21.15,-4.45,12.4,3
719704,-1.01,-0.02,-0.03,3.96,-2.03,0.24,-21.15,-4.45,12.4,3
719716,-1.01,-0.02,-0.03,3.45,-2.15,0.22,-21.15,-4.45,12.4,3
719728,-1.01,-0.02,-0.03,2.77,-1.93,0.17,-21.15,-4.45,12.4,3
719739,-1.01,-0.02,-0.03,2.62,-1.95,0.16,-21.14,-4.51,12.43,3
719753,-1.01,-0.02,-0.03,2.75,-2.54,0.18,-21.14,-4.51,12.43,3
719765,-1.01,-0.02,-0.03,3.16,-3.11,0.31,-21.14,-4.51,12.43,3
719779,-1.01,-0.02,-0.03,2.92,-3.88,0.44,-21.14,-4.51,12.43,3
719790,-1.01,-0.02,-0.03,2.67,-4.37,0.49,-21.03,-4.47,12.46,3
719803,-1.01,-0.02,-0.03,2.43,-4.88,0.57,-21.03,-4.47,12.46,3
719814,-1.01,-0.02,-0.04,2.82,-5.07,0.58,-21.03,-4.47,12.46,3
719825,-1.01,-0.02,-0.03,3.4,-5.19,0.64,-21.03,-4.47,12.46,3
719836,-1.01,-0.02,-0.03,3.5,-5.05,0.66,-21.01,-4.51,12.45,3
719848,-1.01,-0.02,-0.03,2.93,-5.04,0.68,-21.01,-4.51,12.45,3
719860,-1.01,-0.02,-0.04,2.71,-5.09,0.7,-21.01,-4.51,12.45,3
719874,-1.01,-0.02,-0.04,3.42,-5.4,0.79,-21.01,-4.51,12.45,3
719885,-1.01,-0.02,-0.04,4.02,-5.38,0.83,-20.94,-4.55,12.35,3
719898,-1.01,-0.02,-0.04,3.7,-4.67,0.66,-20.94,-4.55,12.35,3
719910,-1.01,-0.02,-0.04,3.35,-4.37,0.63,-20.94,-4.55,12.35,3
719922,-1.01,-0.02,-0.04,3.19,-3.97,0.57,-20.94,-4.55,12.35,3
719935,-1.01,-0.02,-0.04,4.06,0.01,0.04,-20.87,-4.58,12.15,3
719947,-1.01,-0.02,-0.04,4.31,1.81,-0.21,-20.87,-4.58,12.15,3
719959,-1.01,-0.02,-0.04,4.53,3.54,-0.4,-20.87,-4.58,12.15,3
719971,-1.01,-0.02,-0.04,4.86,3.78,-0.37,-20.87,-4.58,12.15,3
719982,-1.01,-0.02,-0.04,5.18,3.92,-0.39,-20.99,-4.71,12.05,3
719994,-1.01,-0.02,-0.04,5.05,3.27,-0.4,-20.99,-4.71,12.05,3
720006,-1.01,-0.02,-0.04,5.25,3.45,-0.48,-20.99,-4.71,12.05,3
720020,-1.01,-0.02,-0.03,4.94,3.24,-0.49,-20.99,-4.71,12.05,3
720032,-1.01,-0.02,-0.03,4.5,2.29,-0.35,-20.97,-4.88,12.13,3
720044,-1.01,-0.02,-0.03,4.2,0.97,-0.24,-20.97,-4.88,12.13,3
720055,-1.01,-0.02,-0.03,3.93,0.35,-0.19,-20.97,-4.88,12.13,3
720067,-1.01,-0.02,-0.03,3.62,-0.28,-0.12,-20.97,-4.88,12.13,3
720078,-1.01,-0.02,-0.03,3.62,-0.67,-0.04,-20.97,-4.88,12.13,3
720089,-1.01,-0.02,-0.03,4.19,-0.07,-0.14,-20.81,-4.91,12.27,3
720101,-1.01,-0.02,-0.03,4.53,0.61,-0.23,-20.81,-4.91,12.27,3
720114,-1.01,-0.02,-0.03,4.0,-0.23,-0.05,-20.81,-4.91,12.27,3
720126,-1.01,-0.02,-0.03,4.17,-0.26,-0.04,-20.81,-4.91,12.27,3
720138,-1.01,-0.02,-0.03,4.47,0.75,-0.15,-20.75,-4.96,12.23,3
720149,-1.01,-0.02,-0.03,4.05,0.52,-0.13,-20.75,-4.96,12.23,3
720161,-1.01,-0.02,-0.04,3.86,0.35,-0.11,-20.75,-4.96,12.23,3
720172,-1.01,-0.02,-0.03,4.62,-0.76,0.05,-20.75,-4.96,12.23,3
720185,-1.01,-0.02,-0.02,4.21,-1.32,0.1,-20.81,-4.99,12.15,3
720197,-1.01,-0.02,-0.03,3.7,-1.79,0.18,-20.81,-4.99,12.15,3
720209,-1.01,-0.02,-0.03,2.95,-2.69,0.29,-20.81,-4.99,12.15,3
720221,-1.01,-0.02,-0.03,2.97,-3.57,0.36,-20.81,-4.99,12.15,3
720232,-1.0,-0.01,-0.04,3.99,-4.87,0.58,-20.88,-5.04,12.29,3
720243,-1.01,-0.02,-0.03,5.4,-5.99,0.86,-20.88,-5.04,12.29,3
720255,-1.02,-0.02,-0.03,6.48,-5.72,0.9,-20.88,-5.04,12.29,3
720269,-1.01,-0.03,-0.03,8.36,-1.33,0.29,-20.88,-5.04,12.29,3
720282,-1.01,-0.02,-0.03,8.5,-0.09,0.26,-21.03,-5.04,12.26,3
720294,-1.01,-0.02,-0.04,8.6,1.87,-0.01,-21.03,-5.04,12.26,3
720305,-1.01,-0.03,-0.04,9.3,3.14,-0.25,-21.03,-5.04,12.26,3
720317,-1.01,-0.02,-0.04,10.21,4.17,-0.45,-21.03,-5.04,12.26,3
720329,-1.01,-0.02,-0.04,10.96,4.87,-0.43,-21.03,-5.04,12.26,3
720340,-1.01,-0.02,-0.03,11.16,5.37,-0.48,-21.07,-5.07,12.07,3
720353,-1.01,-0.02,-0.02,8.97,3.86,-0.39,-21.07,-5.07,12.07,3
720364,-1.01,-0.02,-0.02,7.64,1.95,-0.15,-21.07,-5.07,12.07,3
720376,-1.01,-0.02,-0.02,6.44,0.02,0.04,-21.07,-5.07,12.07,3
720389,-1.01,-0.02,-0.03,4.65,-2.45,0.21,-20.99,-5.09,11.87,3
720401,-1.01,-0.02,-0.04,4.11,-2.34,0.18,-20.99,-5.09,11.87,3
720415,-1.01,-0.02,-0.03,3.65,-0.21,-0.06,-20.99,-5.09,11.87,3
720427,-1.01,-0.02,-0.03,3.68,0.51,-0.13,-20.99,-5.09,11.87,3
720440,-1.01,-0.02,-0.02,4.27,0.12,0.02,-20.97,-5.1,11.69,3
720452,-1.01,-0.02,-0.02,4.03,-0.73,0.08,-20.97,-5.1,11.69,3
720466,-1.01,-0.02,-0.02,3.15,-2.4,0.23,-20.97,-5.1,11.69,3
720478,-1.01,-0.02,-0.02,2.82,-2.85,0.26,-20.97,-5.1,11.69,3
720490,-1.01,-0.02,-0.03,2.13,-2.96,0.29,-20.93,-5.04,11.61,3
720501,-1.01,-0.02,-0.03,1.98,-2.91,0.27,-20.93,-5.04,11.61,3
720512,-1.01,-0.02,-0.03,1.91,-2.79,0.25,-20.93,-5.04,11.61,3
720525,-1.01,-0.02,-0.03,1.76,-1.72,0.05,-20.93,-5.04,11.61,3
720537,-1.01,-0.02,-0.04,1.66,-0.5,-0.07,-20.94,-5.0,11.46,3
720549,-1.01,-0.02,-0.03,1.55,0.82,-0.23,-20.94,-5.0,11.46,3
720561,-1.01,-0.02,-0.02,1.04,2.57,-0.48,-20.94,-5.0,11.46,3
720573,-1.01,-0.02,-0.02,0.31,2.94,-0.55,-20.94,-5.0,11.46,3
720586,-1.01,-0.02,-0.02,-0.87,2.41,-0.51,-20.89,-5.02,11.33,3
720597,-1.0,-0.02,-0.02,-1.76,1.82,-0.48,-20.89,-5.02,11.33,3
720609,-1.01,-0.02,-0.01,-2.71,1.11,-0.44,-20.89,-5.02,11.33,3
720621,-1.01,-0.02,-0.01,-4.94,0.2,-0.26,-20.89,-5.02,11.33,3
720632,-1.01,-0.02,-0.02,-5.56,-0.45,-0.23,-20.91,-5.08,11.22,3
720643,-1.01,-0.02,-0.03,-5.77,-0.71,-0.23,-20.91,-5.08,11.22,3
720655,-1.01,-0.01,-0.03,-4.84,-0.89,-0.21,-20.91,-5.08,11.22,3
720666,-1.01,-0.02,-0.02,-4.57,-1.08,-0.18,-20.91,-5.08,11.22,3
720679,-1.01,-0.02,-0.02,-4.13,-1.82,-0.1,-20.91,-5.08,11.22,3
720691,-1.01,-0.02,-0.02,-3.83,-1.97,-0.09,-20.98,-5.08,10.97,3
720703,-1.01,-0.02,-0.02,-3.17,-2.08,-0.08,-20.98,-5.08,10.97,3
720715,-1.01,-0.02,-0.02,-1.98,-1.5,-0.13,-20.98,-5.08,10.97,3
720726,-1.01,-0.02,-0.02,-1.95,-1.25,-0.15,-20.98,-5.08,10.97,3
720737,-1.01,-0.02,-0.02,-1.9,-1.19,-0.16,-20.99,-5.02,11.03,3
720750,-1.01,-0.02,-0.02,-1.3,-1.19,-0.13,-20.99,-5.02,11.03,3
720762,-1.01,-0.02,-0.02,-1.36,-1.15,-0.1,-20.99,-5.02,11.03,3
720774,-1.01,-0.02,-0.02,-0.82,-1.32,-0.05,-20.99,-5.02,11.03,3
720785,-1.01,-0.02,-0.02,-0.51,-1.16,-0.1,-21.06,-5.07,11.1,3
720797,-1.01,-0.02,-0.03,-0.37,-1.09,-0.06,-21.06,-5.07,11.1,3
720810,-1.01,-0.02,-0.03,0.19,-0.69,-0.1,-21.06,-5.07,11.1,3
720821,-1.01,-0.02,-0.02,0.55,-0.48,-0.07,-21.06,-5.07,11.1,3
720835,-1.01,-0.02,-0.02,0.98,-0.43,-0.02,-21.1,-5.05,11.26,3
720847,-1.01,-0.02,-0.02,1.14,-0.43,-0.0,-21.1,-5.05,11.26,3
720861,-1.01,-0.02,-0.02,1.44,-0.39,-0.05,-21.1,-5.05,11.26,3
720873,-1.01,-0.02,-0.02,1.54,-0.37,-0.04,-21.1,-5.05,11.26,3
720885,-1.01,-0.02,-0.02,1.63,-0.64,-0.02,-21.18,-4.98,11.67,3
720896,-1.01,-0.02,-0.02,1.64,-0.82,-0.02,-21.18,-4.98,11.67,3
720907,-1.01,-0.02,-0.02,1.67,-0.84,-0.04,-21.18,-4.98,11.67,3
720921,-1.01,-0.02,-0.02,0.93,-1.33,0.01,-21.18,-4.98,11.67,3
720932,-1.01,-0.02,-0.02,-0.09,-1.92,0.09,-21.04,-4.94,11.5,3
720943,-1.01,-0.02,-0.02,-0.34,-2.13,0.08,-21.04,-4.94,11.5,3
720954,-1.01,-0.02,-0.03,-0.08,-1.87,0.04,-21.04,-4.94,11.5,3
720965,-1.01,-0.02,-0.03,0.03,-1.6,0.0,-21.04,-4.94,11.5,3
720977,-1.01,-0.02,-0.03,0.02,-1.15,-0.02,-21.04,-4.94,11.5,3
720990,-1.01,-0.02,-0.02,0.41,-0.49,-0.06,-21.06,-4.93,11.57,3
721002,-1.01,-0.02,-0.02,0.38,-0.42,-0.1,-21.06,-4.93,11.57,3
721013,-1.01,-0.01,-0.02,-0.47,-1.03,0.0,-21.06,-4.93,11.57,3
721025,-1.01,-0.02,-0.02,-1.53,-2.6,0.16,-21.06,-4.93,11.57,3
721036,-1.01,-0.02,-0.02,-1.69,-2.39,0.12,-21.12,-4.87,11.51,3
721050,-1.01,-0.02,-0.02,-2.23,-2.18,0.04,-21.12,-4.87,11.51,3
721062,-1.01,-0.02,-0.02,-2.71,-1.23,-0.09,-21.12,-4.87,11.51,3
721076,-1.01,-0.02,-0.01,-2.62,-0.72,-0.16,-21.12,-4.87,11.51,3
721087,-1.0,-0.02,-0.01,-3.17,-1.41,-0.04,-21.17,-4.78,11.79,3
721101,-1.01,-0.02,-0.01,-5.88,-5.73,0.25,-21.17,-4.78,11.79,3
721113,-1.01,-0.02,-0.02,-6.15,-5.85,0.33,-21.17,-4.78,11.79,3
721127,-1.01,-0.02,-0.04,-6.47,-3.73,-0.0,-21.17,-4.78,11.79,3
721139,-1.01,-0.02,-0.04,-6.25,-2.11,-0.14,-21.06,-4.86,11.78,3
721153,-1.01,-0.02,-0.04,-3.83,0.69,-0.4,-21.06,-4.86,11.78,3
721165,-1.01,-0.01,-0.03,-2.88,0.85,-0.35,-21.06,-4.86,11.78,3
721180,-1.01,-0.02,-0.02,-3.73,-2.28,-0.03,-21.11,-4.78,11.77,3
721192,-1.01,-0.02,-0.02,-4.31,-4.4,0.26,-21.11,-4.78,11.77,3
721203,-1.01,-0.02,-0.02,-3.55,-5.46,0.4,-21.11,-4.78,11.77,3
721215,-1.01,-0.02,-0.03,-2.98,-5.03,0.41,-21.11,-4.78,11.77,3
721227,-1.01,-0.02,-0.03,-2.61,-4.69,0.38,-21.11,-4.78,11.77,3
721240,-1.01,-0.02,-0.02,-2.09,-3.97,0.29,-21.13,-4.74,11.91,3
721251,-1.01,-0.02,-0.02,-2.57,-4.09,0.23,-21.13,-4.74,11.91,3
721265,-1.01,-0.02,-0.04,-3.41,-5.02,0.29,-21.13,-4.74,11.91,3
721276,-1.01,-0.02,-0.04,-2.78,-4.19,0.24,-21.13,-4.74,11.91,3
721289,-1.01,-0.02,-0.04,-2.48,-0.94,-0.2,-21.02,-4.66,11.99,3
721300,-1.01,-0.02,-0.04,-2.52,0.75,-0.49,-21.02,-4.66,11.99,3
721312,-1.01,-0.02,-0.03,-2.79,2.23,-0.71,-21.02,-4.66,11.99,3
721324,-1.0,-0.02,-0.03,-4.04,3.58,-0.72,-21.02,-4.66,11.99,3
721336,-1.0,-0.02,-0.03,-5.02,1.55,-0.48,-21.03,-4.58,12.07,3
721348,-1.01,-0.01,-0.02,-6.43,-2.29,-0.14,-21.03,-4.58,12.07,3
721359,-1.01,-0.02,-0.03,-7.3,-5.85,0.17,-21.03,-4.58,12.07,3
721371,-1.01,-0.02,-0.03,-7.51,-8.48,0.46,-21.03,-4.58,12.07,3
721383,-1.02,-0.02,-0.05,-5.17,-7.82,0.47,-21.07,-4.48,12.0,3
721395,-1.02,-0.02,-0.05,-3.71,-5.12,0.21,-21.07,-4.48,12.0,3
721406,-1.01,-0.02,-0.05,-2.54,-2.66,-0.05,-21.07,-4.48,12.0,3
721418,-1.01,-0.02,-0.04,-1.17,0.17,-0.33,-21.07,-4.48,12.0,3
721430,-1.01,-0.02,-0.03,-1.5,0.88,-0.42,-20.99,-4.34,12.29,3
721442,-1.01,-0.02,-0.03,-1.25,0.61,-0.41,-20.99,-4.34,12.29,3
721453,-1.01,-0.02,-0.03,-1.07,0.43,-0.41,-20.99,-4.34,12.29,3
721465,-1.01,-0.02,-0.03,-1.2,0.59,-0.44,-20.99,-4.34,12.29,3
721480,-1.01,-0.02,-0.03,-2.69,-0.65,-0.26,-20.9,-4.39,12.39,3
721492,-1.01,-0.02,-0.04,-3.43,-1.85,-0.08,-20.9,-4.39,12.39,3
721505,-1.0,-0.02,-0.04,-4.39,-4.53,0.29,-20.9,-4.39,12.39,3
721517,-1.01,-0.02,-0.04,-5.01,-5.94,0.43,-20.9,-4.39,12.39,3
721532,-1.01,-0.02,-0.05,-4.98,-5.93,0.44,-20.86,-4.27,12.35,3
721543,-1.01,-0.02,-0.05,-4.79,-5.17,0.33,-20.86,-4.27,12.35,3
721555,-1.01,-0.02,-0.05,-4.29,-2.33,-0.12,-20.86,-4.27,12.35,3
721566,-1.01,-0.02,-0.05,-4.28,-0.56,-0.31,-20.86,-4.27,12.35,3
721577,-1.01,-0.02,-0.04,-4.87,-0.49,-0.36,-20.86,-4.27,12.35,3
721588,-1.0,-0.02,-0.04,-5.58,-1.29,-0.36,-20.74,-4.27,12.49,3
721599,-1.01,-0.02,-0.04,-5.99,-1.97,-0.3,-20.74,-4.27,12.49,3
721610,-1.01,-0.02,-0.04,-6.19,-2.16,-0.3,-20.74,-4.27,12.49,3
721622,-1.01,-0.02,-0.05,-6.44,-2.26,-0.27,-20.74,-4.27,12.49,3
721635,-1.01,-0.02,-0.04,-5.33,-2.51,-0.18,-20.73,-4.3,12.65,3
721646,-1.01,-0.02,-0.04,-5.02,-2.41,-0.21,-20.73,-4.3,12.65,3
721660,-1.01,-0.02,-0.05,-5.79,-1.59,-0.26,-20.73,-4.3,12.65,3
721672,-1.01,-0.02,-0.05,-4.89,-1.89,-0.21,-20.73,-4.3,12.65,3
721684,-1.01,-0.02,-0.05,-2.88,-1.28,-0.2,-20.74,-4.24,12.94,3
721695,-1.01,-0.02,-0.05,-2.19,-0.78,-0.25,-20.74,-4.24,12.94,3
721707,-1.01,-0.02,-0.05,-1.88,-0.19,-0.32,-20.74,-4.24,12.94,3
721720,-1.01,-0.02,-0.04,-2.92,0.21,-0.41,-20.74,-4.24,12.94,3
721731,-1.01,-0.02,-0.04,-3.73,-0.17,-0.36,-20.71,-4.15,13.03,3
721744,-1.01,-0.02,-0.04,-4.32,-0.84,-0.16,-20.71,-4.15,13.03,3
721756,-1.01,-0.02,-0.04,-5.64,-1.31,-0.17,-20.71,-4.15,13.03,3
721768,-1.01,-0.02,-0.05,-5.74,-1.29,-0.22,-20.71,-4.15,13.03,3
721781,-1.01,-0.02,-0.05,-4.77,-0.15,-0.33,-20.73,-4.11,13.09,3
721793,-1.01,-0.02,-0.05,-3.65,1.25,-0.51,-20.73,-4.11,13.09,3
721804,-1.01,-0.02,-0.05,-2.3,4.12,-0.85,-20.73,-4.11,13.09,3
721815,-1.01,-0.02,-0.03,-1.98,5.1,-1.0,-20.73,-4.11,13.09,3
721826,-1.01,-0.02,-0.03,-2.4,6.0,-1.12,-20.73,-4.11,13.09,3
721837,-1.01,-0.02,-0.03,-2.64,6.2,-1.15,-20.81,-4.1,13.26,3
721849,-1.01,-0.02,-0.03,-1.52,4.63,-0.87,-20.81,-4.1,13.26,3
721860,-1.01,-0.02,-0.03,-0.79,3.6,-0.72,-20.81,-4.1,13.26,3
721871,-1.01,-0.02,-0.03,-0.25,2.6,-0.55,-20.81,-4.1,13.26,3
721884,-1.01,-0.02,-0.03,0.17,1.69,-0.4,-20.87,-4.06,13.24,3
721896,-1.0,-0.02,-0.03,0.25,0.81,-0.16,-20.87,-4.06,13.24,3
721909,-1.01,-0.02,-0.03,-1.56,-3.76,0.22,-20.87,-4.06,13.24,3
721921,-1.01,-0.02,-0.03,-1.67,-5.06,0.36,-20.87,-4.06,13.24,3
721934,-1.01,-0.02,-0.04,-0.86,-4.95,0.4,-20.97,-4.12,13.58,3
721947,-1.01,-0.02,-0.04,-0.39,-3.76,0.26,-20.97,-4.12,13.58,3
721957,-1.01,-0.02,-0.04,0.01,-2.22,0.02,-20.97,-4.12,13.58,3
721969,-1.01,-0.02,-0.04,0.69,-0.21,-0.21,-20.97,-4.12,13.58,3
721980,-1.01,-0.02,-0.04,0.9,0.07,-0.23,-20.83,-4.02,13.53,3
721993,-1.01,-0.02,-0.03,1.21,0.07,-0.23,-20.83,-4.02,13.53,3
722004,-1.01,-0.02,-0.04,1.3,0.07,-0.22,-20.83,-4.02,13.53,3
722015,-1.01,-0.02,-0.04,1.38,0.19,-0.18,-20.83,-4.02,13.53,3
722028,-1.01,-0.02,-0.04,1.02,0.13,-0.16,-20.87,-3.98,13.5,3
722040,-1.01,-0.02,-0.03,-0.38,-0.97,-0.04,-20.87,-3.98,13.5,3
722051,-1.01,-0.02,-0.03,-1.92,-2.11,0.08,-20.87,-3.98,13.5,3
722063,-1.01,-0.02,-0.03,-2.49,-3.83,0.28,-20.87,-3.98,13.5,3
722075,-1.01,-0.02,-0.03,-2.87,-4.79,0.31,-20.87,-3.98,13.5,3
722087,-1.02,-0.02,-0.04,-1.95,-5.13,0.29,-20.95,-3.96,13.56,3
722099,-1.02,-0.02,-0.04,-1.16,-4.17,0.2,-20.95,-3.96,13.56,3
722111,-1.01,-0.02,-0.04,-0.47,-3.4,0.14,-20.95,-3.96,13.56,3
722123,-1.01,-0.02,-0.04,0.42,-1.86,0.02,-20.95,-3.96,13.56,3
722134,-1.01,-0.02,-0.04,0.73,-1.47,-0.05,-20.91,-3.99,13.75,3
722145,-1.01,-0.02,-0.04,0.92,-1.59,-0.02,-20.91,-3.99,13.75,3
722158,-1.01,-0.02,-0.04,1.16,-2.09,0.07,-20.91,-3.99,13.75,3
722169,-1.01,-0.02,-0.04,1.31,-2.16,0.1,-20.91,-3.99,13.75,3
722180,-1.01,-0.02,-0.04,1.39,-2.02,0.12,-20.91,-4.05,13.57,3
722192,-1.01,-0.02,-0.04,1.55,-1.42,0.08,-20.91,-4.05,13.57,3
722204,-1.01,-0.02,-0.04,1.59,-0.97,0.03,-20.91,-4.05,13.57,3
722218,-1.01,-0.02,-0.04,1.65,-0.56,-0.03,-20.91,-4.05,13.57,3
722229,-1.01,-0.02,-0.04,1.7,-0.8,-0.02,-21.1,-4.06,13.66,3
722242,-1.01,-0.02,-0.04,2.33,-2.02,0.16,-21.1,-4.06,13.66,3
722253,-1.01,-0.02,-0.04,2.57,-2.75,0.26,-21.1,-4.06,13.66,3
722265,-1.01,-0.02,-0.04,2.54,-3.38,0.34,-21.1,-4.06,13.66,3
722279,-1.01,-0.02,-0.04,2.36,-4.26,0.44,-21.12,-4.13,13.85,3
722290,-1.01,-0.02,-0.05,2.31,-4.33,0.47,-21.12,-4.13,13.85,3
722301,-1.01,-0.02,-0.05,2.3,-4.1,0.42,-21.12,-4.13,13.85,3
722313,-1.01,-0.02,-0.05,2.71,-3.44,0.4,-21.12,-4.13,13.85,3
722325,-1.01,-0.02,-0.05,2.84,-3.02,0.37,-21.12,-4.13,13.85,3
722338,-1.01,-0.02,-0.05,3.33,-2.65,0.36,-21.17,-4.11,14.18,3
722350,-1.01,-0.02,-0.05,4.01,-2.66,0.44,-21.17,-4.11,14.18,3
722362,-1.01,-0.02,-0.05,5.26,-2.24,0.43,-21.17,-4.11,14.18,3
722374,-1.01,-0.02,-0.04,5.81,-1.92,0.36,-21.17,-4.11,14.18,3
722385,-1.01,-0.02,-0.04,6.06,-1.3,0.2,-21.13,-4.09,14.11,3
722399,-1.01,-0.02,-0.04,4.58,-1.24,0.11,-21.13,-4.09,14.11,3
722410,-1.01,-0.02,-0.04,3.95,-1.38,0.1,-21.13,-4.09,14.11,3
722424,-1.01,-0.02,-0.05,3.07,-1.63,0.1,-21.13,-4.09,14.11,3
722436,-1.01,-0.02,-0.05,2.74,-1.57,0.09,-21.19,-4.02,14.06,3
722449,-1.01,-0.02,-0.05,2.33,-1.3,0.03,-21.19,-4.02,14.06,3
722461,-1.01,-0.02,-0.05,2.22,-1.17,-0.0,-21.19,-4.02,14.06,3
722475,-1.01,-0.02,-0.05,2.04,-1.11,-0.02,-21.19,-4.02,14.06,3
722486,-1.01,-0.02,-0.05,1.98,-1.01,-0.03,-21.21,-4.02,14.09,3
722498,-1.01,-0.02,-0.05,1.91,-0.73,-0.05,-21.21,-4.02,14.09,3
722510,-1.01,-0.02,-0.05,1.84,-0.46,-0.09,-21.21,-4.02,14.09,3
722521,-1.01,-0.02,-0.04,1.85,-0.29,-0.13,-21.21,-4.02,14.09,3
722534,-1.01,-0.02,-0.04,1.8,-0.41,-0.13,-21.29,-4.05,13.91,3
722545,-1.01,-0.02,-0.04,1.8,-0.49,-0.12,-21.29,-4.05,13.91,3
722557,-1.01,-0.02,-0.04,1.81,-0.57,-0.12,-21.29,-4.05,13.91,3
722568,-1.01,-0.02,-0.04,1.83,-0.82,-0.09,-21.29,-4.05,13.91,3
722581,-1.01,-0.02,-0.04,1.83,-1.04,-0.03,-21.23,-4.12,13.91,3
722592,-1.01,-0.02,-0.04,1.81,-1.36,0.03,-21.23,-4.12,13.91,3
722605,-1.01,-0.02,-0.04,2.07,-2.04,0.12,-21.23,-4.12,13.91,3
722616,-1.01,-0.02,-0.04,2.19,-2.22,0.16,-21.23,-4.12,13.91,3
722628,-1.01,-0.02,-0.04,2.14,-2.28,0.15,-21.15,-4.02,14.0,3
722639,-1.01,-0.02,-0.05,2.07,-2.33,0.17,-21.15,-4.02,14.0,3
722651,-1.01,-0.02,-0.05,2.06,-2.23,0.16,-21.15,-4.02,14.0,3
722665,-1.01,-0.02,-0.05,2.53,-1.97,0.13,-21.15,-4.02,14.0,3
722678,-1.01,-0.02,-0.05,3.76,-0.93,0.01,-21.2,-3.91,14.02,3
722689,-1.01,-0.02,-0.05,4.31,1.08,-0.27,-21.2,-3.91,14.02,3
722700,-1.01,-0.02,-0.05,4.04,1.23,-0.32,-21.2,-3.91,14.02,3
722712,-1.01,-0.02,-0.04,4.13,1.42,-0.36,-21.2,-3.91,14.02,3
722723,-1.01,-0.02,-0.04,4.11,0.61,-0.25,-21.2,-3.91,14.02,3
722735,-1.01,-0.02,-0.04,3.67,0.02,-0.16,-21.21,-3.98,13.96,3
722746,-1.01,-0.02,-0.04,3.35,-0.27,-0.11,-21.21,-3.98,13.96,3
722759,-1.01,-0.02,-0.04,2.86,-0.2,-0.13,-21.21,-3.98,13.96,3
722770,-1.01,-0.02,-0.04,2.7,0.03,-0.11,-21.21,-3.98,13.96,3
722781,-1.01,-0.02,-0.04,2.62,0.4,-0.18,-21.09,-3.95,13.9,3
722793,-1.01,-0.02,-0.04,2.52,0.97,-0.25,-21.09,-3.95,13.9,3
722805,-1.01,-0.02,-0.04,2.33,1.04,-0.29,-21.09,-3.95,13.9,3
722819,-1.01,-0.02,-0.04,2.02,1.29,-0.29,-21.09,-3.95,13.9,3
722830,-1.01,-0.02,-0.04,1.66,1.61,-0.3,-21.12,-3.99,13.65,3
722843,-1.01,-0.02,-0.04,1.1,2.99,-0.49,-21.12,-3.99,13.65,3
722854,-1.01,-0.02,-0.04,0.8,4.16,-0.64,-21.12,-3.99,13.65,3
722866,-1.01,-0.02,-0.04,0.5,5.57,-0.82,-21.12,-3.99,13.65,3
722877,-1.01,-0.02,-0.04,0.49,7.03,-0.98,-21.15,-4.06,13.59,3
722888,-1.01,-0.02,-0.04,0.77,8.32,-1.15,-21.15,-4.06,13.59,3
722900,-1.01,-0.02,-0.03,0.88,8.83,-1.25,-21.15,-4.06,13.59,3
722912,-1.01,-0.02,-0.02,1.25,7.04,-0.99,-21.15,-4.06,13.59,3
722923,-1.01,-0.02,-0.02,1.38,5.35,-0.79,-21.15,-4.06,13.59,3
722934,-1.01,-0.02,-0.02,1.46,3.7,-0.6,-21.27,-3.97,13.48,3
722948,-1.01,-0.02,-0.02,1.58,1.54,-0.33,-21.27,-3.97,13.48,3
722960,-1.01,-0.02,-0.03,1.62,1.2,-0.27,-21.27,-3.97,13.48,3
722974,-1.01,-0.02,-0.02,1.71,1.54,-0.21,-21.27,-3.97,13.48,3
722985,-1.01,-0.02,-0.02,1.77,1.76,-0.19,-21.28,-3.98,13.45,3
722998,-1.01,-0.02,-0.02,1.76,1.75,-0.24,-21.28,-3.98,13.45,3
723010,-1.01,-0.02,-0.02,1.76,1.53,-0.2,-21.28,-3.98,13.45,3
723022,-1.01,-0.02,-0.02,1.75,1.18,-0.17,-21.28,-3.98,13.45,3
723035,-1.01,-0.02,-0.02,1.85,0.32,-0.13,-21.24,-3.9,13.39,3
723047,-1.01,-0.02,-0.02,2.14,-0.12,-0.08,-21.24,-3.9,13.39,3
723058,-1.01,-0.02,-0.02,2.29,-0.88,-0.05,-21.24,-3.9,13.39,3
723070,-1.01,-0.02,-0.02,2.2,-1.14,-0.03,-21.24,-3.9,13.39,3
723081,-1.01,-0.02,-0.02,2.12,-1.13,-0.01,-21.18,-3.8,13.03,3
723093,-1.01,-0.02,-0.02,1.96,-0.64,0.01,-21.18,-3.8,13.03,3
723105,-1.01,-0.02,-0.02,1.92,-0.35,-0.01,-21.18,-3.8,13.03,3
723119,-1.01,-0.02,-0.02,1.86,0.16,-0.04,-21.18,-3.8,13.03,3
723130,-1.01,-0.02,-0.02,1.83,0.42,-0.07,-21.22,-3.78,13.02,3
723143,-1.01,-0.02,-0.02,1.79,1.06,-0.12,-21.22,-3.78,13.02,3
723155,-1.01,-0.02,-0.02,1.74,1.29,-0.16,-21.22,-3.78,13.02,3
723167,-1.01,-0.02,-0.02,1.75,1.36,-0.15,-21.22,-3.78,13.02,3
723179,-1.01,-0.02,-0.02,1.77,1.08,-0.13,-21.33,-3.92,12.91,3
723191,-1.01,-0.02,-0.01,1.76,0.84,-0.1,-21.33,-3.92,12.91,3
723202,-1.01,-0.02,-0.01,1.69,0.64,-0.12,-21.33,-3.92,12.91,3
723215,-1.01,-0.02,-0.02,1.74,0.17,-0.11,-21.33,-3.92,12.91,3
723228,-1.01,-0.02,-0.01,1.76,0.15,-0.11,-21.25,-3.89,12.95,3
723240,-1.01,-0.02,-0.01,1.75,0.0,-0.05,-21.25,-3.89,12.95,3
723252,-1.01,-0.02,-0.01,1.74,-0.16,-0.04,-21.25,-3.89,12.95,3
723266,-1.01,-0.02,-0.01,1.79,-0.51,0.01,-21.25,-3.89,12.95,3
723277,-1.01,-0.02,-0.01,1.84,-0.64,0.01,-21.31,-4.04,13.01,3
723290,-1.01,-0.02,-0.01,1.83,-0.83,0.01,-21.31,-4.04,13.01,3
723302,-1.01,-0.02,-0.01,1.81,-0.96,-0.03,-21.31,-4.04,13.01,3
723314,-1.01,-0.02,-0.01,1.82,-1.12,-0.02,-21.31,-4.04,13.01,3
723327,-1.01,-0.02,-0.01,1.83,-1.28,0.06,-21.19,-4.05,12.88,3
723339,-1.01,-0.02,-0.01,1.84,-1.16,0.04,-21.19,-4.05,12.88,3
723351,-1.01,-0.02,-0.01,1.81,-0.74,0.02,-21.19,-4.05,12.88,3
723363,-1.01,-0.02,-0.01,1.8,-0.67,0.01,-21.19,-4.05,12.88,3
723378,-1.01,-0.02,-0.01,1.79,-0.71,0.06,-21.11,-4.13,12.75,3
723390,-1.01,-0.02,-0.01,1.77,-0.78,0.06,-21.11,-4.13,12.75,3
723404,-1.01,-0.02,-0.01,1.73,-0.92,0.02,-21.11,-4.13,12.75,3
723415,-1.01,-0.02,-0.01,1.73,-0.95,0.03,-21.11,-4.13,12.75,3
723428,-1.01,-0.02,-0.01,1.68,-0.93,0.04,-21.2,-4.19,12.76,3
723440,-1.01,-0.02,-0.01,1.7,-0.92,0.03,-21.2,-4.19,12.76,3
723453,-1.01,-0.02,-0.01,1.7,-0.83,0.01,-21.2,-4.19,12.76,3
723464,-1.01,-0.02,-0.01,1.7,-0.78,-0.01,-21.2,-4.19,12.76,3
723477,-1.01,-0.02,-0.01,1.69,-0.81,-0.01,-21.2,-4.19,12.78,3
723489,-1.01,-0.02,-0.01,1.7,-1.14,-0.0,-21.2,-4.19,12.78,3
723500,-1.01,-0.02,-0.01,1.64,-1.13,-0.03,-21.2,-4.19,12.78,3
723512,-1.01,-0.02,-0.01,1.62,-1.02,-0.01,-21.2,-4.19,12.78,3
723523,-1.01,-0.02,-0.01,1.67,-0.82,-0.01,-21.2,-4.19,12.78,3
723534,-1.01,-0.02,-0.01,1.72,-0.55,0.01,-21.15,-4.14,12.43,3
723547,-1.01,-0.02,-0.01,1.66,-0.5,-0.02,-21.15,-4.14,12.43,3
723559,-1.01,-0.02,-0.01,1.69,-0.59,-0.02,-21.15,-4.14,12.43,3
723571,-1.01,-0.02,-0.01,1.73,-0.76,-0.01,-21.15,-4.14,12.43,3
723584,-1.01,-0.02,-0.01,1.71,-1.2,-0.03,-21.24,-4.13,12.54,3
723596,-1.01,-0.02,-0.01,1.74,-1.3,-0.04,-21.24,-4.13,12.54,3
723607,-1.01,-0.02,-0.01,1.7,-1.72,-0.04,-21.24,-4.13,12.54,3
723619,-1.01,-0.02,-0.01,1.68,-1.84,-0.03,-21.24,-4.13,12.54,3
723630,-1.01,-0.02,-0.02,1.67,-1.65,-0.01,-21.24,-4.2,12.63,3
723644,-1.01,-0.02,-0.02,1.7,-0.24,0.0,-21.24,-4.2,12.63,3
723656,-1.01,-0.02,-0.02,1.69,0.93,-0.01,-21.24,-4.2,12.63,3
723670,-1.01,-0.02,-0.01,1.75,2.49,-0.0,-21.24,-4.2,12.63,3
723681,-1.01,-0.02,-0.01,1.73,2.61,0.01,-21.15,-4.23,12.64,3
723693,-1.01,-0.02,-0.01,1.74,1.72,-0.03,-21.15,-4.23,12.64,3
723705,-1.01,-0.02,-0.0,1.72,1.04,-0.01,-21.15,-4.23,12.64,3
723716,-1.01,-0.02,-0.01,1.71,0.41,-0.02,-21.15,-4.23,12.64,3
723730,-1.01,-0.02,-0.01,1.72,-0.07,0.02,-21.17,-4.24,12.59,3
723741,-1.01,-0.02,-0.01,1.73,0.15,0.06,-21.17,-4.24,12.59,3
723755,-1.01,-0.02,-0.01,1.74,1.16,0.03,-21.17,-4.24,12.59,3
723767,-1.01,-0.02,-0.01,1.77,1.6,0.02,-21.17,-4.24,12.59,3
723779,-1.01,-0.02,-0.01,1.75,2.18,0.04,-21.23,-4.21,12.97,3
723790,-1.01,-0.02,-0.0,1.75,2.36,0.03,-21.23,-4.21,12.97,3
723802,-1.01,-0.02,-0.0,1.72,2.54,0.01,-21.23,-4.21,12.97,3
723816,-1.01,-0.02,-0.0,1.73,2.67,0.02,-21.23,-4.21,12.97,3
723827,-1.01,-0.02,0.0,1.74,2.6,0.0,-21.21,-4.31,12.88,3
723841,-1.01,-0.02,0.01,1.73,1.79,0.03,-21.21,-4.31,12.88,3
723852,-1.01,-0.02,0.01,1.7,0.94,0.02,-21.21,-4.31,12.88,3
723865,-1.01,-0.02,0.01,1.7,-1.19,0.01,-21.21,-4.31,12.88,3
723877,-1.01,-0.02,0.0,1.72,-2.19,-0.0,-21.14,-4.33,12.66,3
723889,-1.01,-0.02,0.0,1.73,-2.81,0.01,-21.14,-4.33,12.66,3
723901,-1.01,-0.02,-0.0,1.77,-2.66,-0.0,-21.14,-4.33,12.66,3
723912,-1.01,-0.02,-0.0,1.8,-2.15,-0.03,-21.14,-4.33,12.66,3
723924,-1.01,-0.02,-0.0,1.82,-1.58,-0.04,-21.14,-4.33,12.66,3
723937,-1.01,-0.02,-0.0,1.77,-0.61,0.04,-21.22,-4.32,12.73,3
723949,-1.01,-0.02,-0.0,1.75,-0.17,0.04,-21.22,-4.32,12.73,3
723961,-1.01,-0.02,-0.0,1.76,0.87,0.05,-21.22,-4.32,12.73,3
723973,-1.01,-0.02,-0.0,1.76,1.31,0.02,-21.22,-4.32,12.73,3
723985,-1.01,-0.02,0.0,1.78,1.64,0.01,-21.3,-4.22,12.8,3
723996,-1.01,-0.02,0.0,1.75,1.48,-0.03,-21.3,-4.22,12.8,3
724008,-1.01,-0.02,0.01,1.74,1.1,-0.05,-21.3,-4.22,12.8,3
724022,-1.01,-0.02,0.01,1.75,-0.11,-0.0,-21.3,-4.22,12.8,3
724033,-1.01,-0.02,0.0,1.75,-0.67,0.01,-21.24,-4.24,12.88,3
724047,-1.01,-0.02,0.0,1.7,-0.93,-0.01,-21.24,-4.24,12.88,3
724058,-1.01,-0.02,0.0,1.71,-0.67,-0.01,-21.24,-4.24,12.88,3
724071,-1.01,-0.02,0.0,1.67,0.27,-0.0,-21.24,-4.24,12.88,3
724083,-1.01,-0.02,0.0,1.65,0.46,0.01,-21.19,-4.23,13.04,3
724094,-1.01,-0.02,0.0,1.68,0.33,0.01,-21.19,-4.23,13.04,3
724105,-1.01,-0.02,0.0,1.72,-0.24,-0.04,-21.19,-4.23,13.04,3
724117,-1.01,-0.02,0.0,1.76,-0.47,-0.08,-21.19,-4.23,13.04,3
724128,-1.01,-0.02,0.0,1.76,-0.58,-0.08,-21.18,-4.27,12.83,3
724142,-1.01,-0.02,0.0,1.79,-0.35,-0.04,-21.18,-4.27,12.83,3
724154,-1.01,-0.02,0.0,1.77,-0.15,-0.03,-21.18,-4.27,12.83,3
724168,-1.01,-0.02,0.01,1.78,-0.23,0.02,-21.18,-4.27,12.83,3
724179,-1.01,-0.02,0.01,1.75,-0.52,0.02,-21.27,-4.22,13.04,3
724192,-1.01,-0.02,0.01,1.73,-1.23,0.02,-21.27,-4.22,13.04,3
724203,-1.01,-0.02,0.01,1.73,-1.51,0.04,-21.27,-4.22,13.04,3
724215,-1.01,-0.02,0.01,1.71,-1.77,0.05,-21.27,-4.22,13.04,3
724227,-1.01,-0.02,0.0,1.71,-1.86,0.0,-21.21,-4.15,12.94,3
724238,-1.01,-0.02,0.0,1.69,-1.5,0.0,-21.21,-4.15,12.94,3
724249,-1.01,-0.02,0.0,1.64,-1.0,-0.04,-21.21,-4.15,12.94,3
724260,-1.01,-0.02,0.0,1.67,0.3,-0.02,-21.21,-4.15,12.94,3
724271,-1.01,-0.02,0.01,1.68,0.79,-0.02,-21.21,-4.15,12.94,3
724282,-1.01,-0.02,0.01,1.68,0.98,0.03,-21.11,-4.19,13.05,3
724296,-1.01,-0.02,0.01,1.7,0.6,0.02,-21.11,-4.19,13.05,3
724307,-1.01,-0.02,0.01,1.69,0.01,0.02,-21.11,-4.19,13.05,3
724320,-1.01,-0.02,0.01,1.65,-0.74,-0.01,-21.11,-4.19,13.05,3
724332,-1.01,-0.02,0.01,1.67,-1.0,0.0,-21.1,-4.28,12.98,3
724344,-1.01,-0.02,0.01,1.72,-1.03,0.0,-21.1,-4.28,12.98,3
724356,-1.01,-0.02,0.01,1.73,-1.05,-0.07,-21.1,-4.28,12.98,3
724368,-1.01,-0.02,0.01,1.7,-1.09,-0.03,-21.1,-4.28,12.98,3
724380,-1.01,-0.02,0.01,1.68,-0.92,-0.03,-21.07,-4.44,12.93,3
724391,-1.01,-0.02,0.01,1.69,-0.85,-0.04,-21.07,-4.44,12.93,3
724402,-1.01,-0.02,0.01,1.71,-0.86,-0.03,-21.07,-4.44,12.93,3
724415,-1.01,-0.02,0.01,1.76,-1.54,-0.08,-21.07,-4.44,12.93,3
724427,-1.01,-0.02,0.01,1.8,-1.91,-0.06,-21.12,-4.45,12.89,3
724438,-1.01,-0.02,0.01,1.83,-2.12,-0.02,-21.12,-4.45,12.89,3
724451,-1.01,-0.02,0.01,1.77,-2.01,-0.06,-21.12,-4.45,12.89,3
724463,-1.01,-0.02,0.01,1.76,-1.74,-0.05,-21.12,-4.45,12.89,3
724477,-1.01,-0.02,0.0,1.77,-1.36,-0.01,-21.12,-4.49,12.91,3
724489,-1.01,-0.02,0.0,1.76,-1.14,-0.01,-21.12,-4.49,12.91,3
724503,-1.01,-0.02,0.01,1.73,-0.71,-0.0,-21.12,-4.49,12.91,3
724515,-1.01,-0.02,0.01,1.72,-0.58,-0.0,-21.12,-4.49,12.91,3
724526,-1.01,-0.02,0.01,1.73,-0.52,-0.02,-21.31,-4.42,12.9,3
724537,-1.01,-0.02,0.01,1.73,-0.62,-0.01,-21.31,-4.42,12.9,3
724549,-1.01,-0.02,0.01,1.76,-0.9,-0.04,-21.31,-4.42,12.9,3
724562,-1.01,-0.02,0.01,1.81,-1.4,-0.03,-21.31,-4.42,12.9,3
724575,-1.01,-0.02,0.01,1.8,-1.51,-0.03,-21.33,-4.37,12.74,3
724587,-1.01,-0.02,0.01,1.79,-1.61,-0.0,-21.33,-4.37,12.74,3
724598,-1.01,-0.02,0.01,1.79,-1.55,-0.02,-21.33,-4.37,12.74,3
724610,-1.01,-0.02,0.01,1.81,-1.47,-0.03,-21.33,-4.37,12.74,3
724621,-1.01,-0.02,0.01,1.78,-1.65,-0.02,-21.33,-4.37,12.74,3
724633,-1.01,-0.02,0.01,1.74,-1.91,-0.0,-21.27,-4.25,12.65,3
724645,-1.01,-0.02,0.01,1.74,-2.25,-0.03,-21.27,-4.25,12.65,3
724657,-1.01,-0.02,0.01,1.78,-2.83,-0.04,-21.27,-4.25,12.65,3
724668,-1.01,-0.02,0.0,1.82,-2.97,-0.03,-21.27,-4.25,12.65,3
724679,-1.01,-0.02,0.0,1.84,-3.03,-0.02,-21.24,-4.22,12.65,3
724691,-1.01,-0.02,0.0,1.82,-2.8,-0.04,-21.24,-4.22,12.65,3
724703,-1.01,-0.02,0.0,1.78,-2.64,-0.06,-21.24,-4.22,12.65,3
724717,-1.01,-0.02,0.0,1.74,-2.49,-0.06,-21.24,-4.22,12.65,3
724728,-1.01,-0.02,0.0,1.72,-2.6,-0.03,-21.29,-4.24,12.77,3
724741,-1.01,-0.02,0.0,1.73,-3.03,0.03,-21.29,-4.24,12.77,3
724752,-1.01,-0.02,0.0,1.75,-3.2,0.05,-21.29,-4.24,12.77,3
724764,-1.01,-0.02,-0.0,1.77,-3.22,0.04,-21.29,-4.24,12.77,3
724775,-1.01,-0.02,-0.0,1.78,-3.01,0.02,-21.36,-4.24,12.69,3
724786,-1.01,-0.02,-0.0,1.77,-2.65,0.01,-21.36,-4.24,12.69,3
724798,-1.01,-0.02,0.0,1.75,-2.3,-0.03,-21.36,-4.24,12.69,3
724812,-1.01,-0.02,0.0,1.78,-2.48,-0.03,-21.36,-4.24,12.69,3
724824,-1.01,-0.02,0.0,1.79,-2.86,-0.01,-21.36,-4.24,12.69,3
724837,-1.01,-0.02,0.0,1.74,-3.82,0.02,-21.35,-4.21,12.73,3
724848,-1.01,-0.02,-0.0,1.69,-4.16,-0.01,-21.35,-4.21,12.73,3
724861,-1.01,-0.02,-0.0,1.78,-4.6,-0.01,-21.35,-4.21,12.73,3
724873,-1.01,-0.02,-0.0,1.76,-4.7,-0.02,-21.35,-4.21,12.73,3
724884,-1.01,-0.02,-0.0,1.75,-4.96,-0.02,-21.36,-4.25,12.69,3
724898,-1.01,-0.02,-0.0,1.75,-6.03,-0.06,-21.36,-4.25,12.69,3
724910,-1.01,-0.02,-0.0,1.79,-6.87,-0.02,-21.36,-4.25,12.69,3
724923,-1.01,-0.02,-0.02,1.75,-8.12,0.08,-21.36,-4.25,12.69,3
724935,-1.01,-0.02,-0.02,1.76,-7.5,0.09,-21.25,-4.25,12.51,3
724948,-1.01,-0.02,-0.02,1.74,-5.84,0.12,-21.25,-4.25,12.51,3
724960,-1.01,-0.02,-0.02,1.73,-5.19,0.12,-21.25,-4.25,12.51,3
724973,-1.01,-0.02,-0.01,1.75,-4.83,0.16,-21.25,-4.25,12.51,3
724985,-1.01,-0.02,-0.02,1.76,-5.29,0.2,-21.27,-4.14,12.49,3
724996,-1.01,-0.02,-0.02,1.75,-5.64,0.24,-21.27,-4.14,12.49,3
725009,-1.01,-0.02,-0.03,1.75,-5.12,0.24,-21.27,-4.14,12.49,3
725021,-1.01,-0.02,-0.03,1.72,-4.35,0.23,-21.27,-4.14,12.49,3
725035,-1.01,-0.02,-0.02,1.77,-2.71,0.15,-21.26,-4.17,12.52,3
725046,-1.01,-0.02,-0.02,1.8,-2.21,0.09,-21.26,-4.17,12.52,3
725060,-1.01,-0.02,-0.02,1.74,-2.45,0.11,-21.26,-4.17,12.52,3
725071,-1.01,-0.02,-0.02,1.7,-2.76,0.14,-21.26,-4.17,12.52,3
725082,-1.01,-0.02,-0.02,1.68,-2.96,0.16,-21.21,-4.1,12.82,3
725093,-1.01,-0.02,-0.02,1.64,-2.84,0.13,-21.21,-4.1,12.82,3
725104,-1.01,-0.02,-0.02,1.65,-2.53,0.13,-21.21,-4.1,12.82,3
725115,-1.01,-0.02,-0.02,1.63,-2.26,0.11,-21.21,-4.1,12.82,3
725126,-1.01,-0.02,-0.02,1.12,-1.75,0.09,-21.04,-4.16,12.82,3
725138,-1.01,-0.02,-0.03,1.06,-1.49,0.03,-21.04,-4.16,12.82,3
725150,-1.01,-0.02,-0.03,1.16,-1.07,-0.02,-21.04,-4.16,12.82,3
725164,-1.01,-0.02,-0.03,1.4,-0.25,-0.07,-21.04,-4.16,12.82,3
725175,-1.01,-0.02,-0.02,1.47,0.17,-0.11,-21.01,-4.24,12.96,3
725189,-1.01,-0.02,-0.02,1.6,0.58,-0.12,-21.01,-4.24,12.96,3
725201,-1.01,-0.02,-0.02,1.64,0.34,-0.08,-21.01,-4.24,12.96,3
725215,-1.01,-0.02,-0.02,1.73,-0.58,-0.06,-21.01,-4.24,12.96,3
725226,-1.01,-0.02,-0.02,1.75,-0.86,-0.06,-20.99,-4.14,12.82,3
725239,-1.01,-0.02,-0.02,1.78,-0.77,-0.05,-20.99,-4.14,12.82,3
725250,-1.01,-0.02,-0.02,1.74,-0.48,-0.07,-20.99,-4.14,12.82,3
725261,-1.01,-0.02,-0.02,1.73,-0.14,-0.09,-20.99,-4.14,12.82,3
725274,-1.01,-0.02,-0.02,1.73,0.26,-0.13,-20.93,-4.15,12.74,3
725286,-1.01,-0.02,-0.02,1.74,0.54,-0.14,-20.93,-4.15,12.74,3
725297,-1.01,-0.02,-0.02,1.72,1.05,-0.19,-20.93,-4.15,12.74,3
725308,-1.01,-0.02,-0.02,1.73,2.29,-0.3,-20.93,-4.15,12.74,3
725319,-1.01,-0.02,-0.02,1.74,2.89,-0.27,-20.93,-4.15,12.74,3
725330,-1.01,-0.02,-0.01,1.76,3.13,-0.24,-20.97,-4.18,12.81,3
725341,-1.01,-0.02,-0.01,1.8,2.49,-0.2,-20.97,-4.18,12.81,3
725353,-1.01,-0.02,-0.01,1.79,1.2,-0.15,-20.97,-4.18,12.81,3
725365,-1.01,-0.02,-0.01,1.77,0.66,-0.13,-20.97,-4.18,12.81,3
725378,-1.01,-0.02,-0.01,1.75,0.32,-0.09,-21.07,-4.15,12.73,3
725390,-1.01,-0.02,-0.01,1.7,0.45,-0.1,-21.07,-4.15,12.73,3
725404,-1.01,-0.02,-0.01,1.64,0.78,-0.1,-21.07,-4.15,12.73,3
725416,-1.01,-0.02,-0.01,1.68,0.82,-0.07,-21.07,-4.15,12.73,3
725428,-1.01,-0.02,-0.01,1.77,0.61,0.0,-21.11,-4.19,12.71,3
725439,-1.01,-0.02,-0.01,1.78,0.41,0.0,-21.11,-4.19,12.71,3
725451,-1.01,-0.02,-0.01,1.81,0.28,-0.01,-21.11,-4.19,12.71,3
725462,-1.01,-0.02,-0.01,1.77,0.22,0.01,-21.11,-4.19,12.71,3
725475,-1.01,-0.02,-0.01,1.75,0.45,0.01,-21.02,-4.23,12.66,3
725486,-1.01,-0.02,-0.01,1.74,0.77,-0.02,-21.02,-4.23,12.66,3
725498,-1.01,-0.02,-0.01,1.73,1.25,-0.1,-21.02,-4.23,12.66,3
725510,-1.01,-0.02,-0.01,1.74,1.5,-0.05,-21.02,-4.23,12.66,3
725525,-1.01,-0.02,-0.01,1.73,2.45,0.02,-20.97,-4.22,12.45,3
725537,-1.01,-0.02,-0.01,1.74,2.96,0.01,-20.97,-4.22,12.45,3
725548,-1.01,-0.02,-0.01,1.75,3.71,-0.03,-20.97,-4.22,12.45,3
725559,-1.01,-0.02,-0.0,1.71,3.86,-0.03,-20.97,-4.22,12.45,3
725570,-1.01,-0.02,-0.0,1.7,3.68,-0.03,-20.97,-4.22,12.45,3
725581,-1.01,-0.02,0.0,1.74,3.26,-0.02,-21.0,-4.22,12.17,3
725593,-1.01,-0.02,-0.0,1.74,2.56,0.01,-21.0,-4.22,12.17,3
725605,-1.01,-0.02,-0.0,1.73,2.52,0.02,-21.0,-4.22,12.17,3
725618,-1.01,-0.02,0.0,1.69,2.97,0.01,-21.0,-4.22,12.17,3
725629,-1.01,-0.02,0.0,1.68,3.05,0.02,-21.05,-4.22,12.22,3
725640,-1.01,-0.02,0.01,1.67,2.85,0.0,-21.05,-4.22,12.22,3
725650,-1.01,-0.02,0.01,1.65,2.4,-0.05,-21.05,-4.22,12.22,3
725662,-1.01,-0.02,0.01,1.72,0.62,-0.03,-21.05,-4.22,12.22,3
725675,-1.01,-0.02,0.01,1.75,-0.36,-0.01,-21.15,-4.19,12.36,3
725686,-1.01,-0.02,0.0,1.73,-1.15,-0.0,-21.15,-4.19,12.36,3
725697,-1.01,-0.02,-0.0,1.71,-0.73,-0.03,-21.15,-4.19,12.36,3
725709,-1.01,-0.02,-0.0,1.72,-0.01,-0.04,-21.15,-4.19,12.36,3
725721,-1.01,-0.02,0.0,1.7,1.79,-0.01,-21.15,-4.19,12.36,3
725732,-1.01,-0.02,0.01,1.71,2.27,0.01,-21.21,-4.3,12.4,3
725743,-1.01,-0.02,0.01,1.69,2.4,-0.01,-21.21,-4.3,12.4,3
725756,-1.01,-0.02,0.01,1.53,1.94,-0.04,-21.21,-4.3,12.4,3
725767,-1.01,-0.02,0.01,1.51,1.65,-0.03,-21.21,-4.3,12.4,3
725778,-1.01,-0.02,0.01,1.53,1.58,-0.04,-21.23,-4.31,12.31,3
725790,-1.01,-0.02,0.01,1.56,2.01,-0.04,-21.23,-4.31,12.31,3
725802,-1.01,-0.02,0.01,1.57,2.31,-0.05,-21.23,-4.31,12.31,3
725815,-1.01,-0.02,0.01,1.61,2.41,-0.05,-21.23,-4.31,12.31,3
725827,-1.01,-0.02,0.02,1.63,2.2,-0.05,-21.32,-4.28,12.14,3
725838,-1.01,-0.02,0.02,1.65,1.75,-0.03,-21.32,-4.28,12.14,3
725851,-1.01,-0.02,0.02,1.66,0.53,-0.06,-21.32,-4.28,12.14,3
725861,-1.01,-0.02,0.02,1.69,-0.06,-0.07,-21.32,-4.28,12.14,3
725873,-1.01,-0.02,0.01,1.69,-0.38,-0.07,-21.32,-4.28,12.1,3
725885,-1.01,-0.02,0.01,1.72,-0.57,-0.07,-21.32,-4.28,12.1,3
725897,-1.01,-0.02,0.01,1.77,-0.75,-0.09,-21.32,-4.28,12.1,3
725910,-1.01,-0.02,0.01,1.75,-1.2,-0.05,-21.32,-4.28,12.1,3
725921,-1.01,-0.02,0.01,1.76,-1.31,-0.03,-21.32,-4.28,12.1,3
725932,-1.01,-0.02,0.01,1.76,-1.4,-0.02,-21.37,-4.28,12.07,3
725946,-1.01,-0.02,0.01,1.83,-1.1,-0.03,-21.37,-4.28,12.07,3
725958,-1.01,-0.02,0.01,1.87,-0.86,-0.03,-21.37,-4.28,12.07,3
725969,-1.01,-0.02,0.01,1.89,-0.36,-0.05,-21.37,-4.28,12.07,3
725981,-1.01,-0.02,0.01,1.89,-0.2,-0.05,-21.43,-4.33,12.2,3
725993,-1.01,-0.02,0.02,1.87,-0.14,-0.04,-21.43,-4.33,12.2,3
726005,-1.01,-0.02,0.02,1.84,-0.85,-0.05,-21.43,-4.33,12.2,3
726016,-1.01,-0.02,0.02,1.82,-1.36,-0.05,-21.43,-4.33,12.2,3
726027,-1.01,-0.02,0.01,1.8,-1.72,-0.07,-21.39,-4.28,12.07,3
726039,-1.01,-0.02,0.01,1.73,-1.91,-0.09,-21.39,-4.28,12.07,3
726051,-1.01,-0.02,0.01,1.69,-1.85,-0.1,-21.39,-4.28,12.07,3
726065,-1.01,-0.02,0.02,1.73,-2.26,-0.05,-21.39,-4.28,12.07,3
726076,-1.01,-0.02,0.02,1.73,-2.89,-0.04,-21.36,-4.28,12.06,3
726089,-1.01,-0.02,0.01,1.77,-3.74,-0.05,-21.36,-4.28,12.06,3
726100,-1.01,-0.02,0.01,1.77,-3.55,-0.09,-21.36,-4.28,12.06,3
726111,-1.01,-0.02,0.0,1.78,-2.9,-0.09,-21.36,-4.28,12.06,3
726124,-1.02,-0.02,0.0,1.82,-0.35,-0.08,-21.33,-4.28,12.1,3
726136,-1.01,-0.02,0.0,1.82,0.95,-0.09,-21.33,-4.28,12.1,3
726147,-1.01,-0.02,0.01,1.76,1.93,-0.12,-21.33,-4.28,12.1,3
726158,-1.01,-0.02,0.01,1.73,2.34,-0.07,-21.33,-4.28,12.1,3
726169,-1.01,-0.02,0.02,1.74,1.83,-0.07,-21.33,-4.28,12.1,3
726180,-1.01,-0.02,0.02,1.75,1.09,-0.07,-21.36,-4.2,11.95,3
726194,-1.01,-0.02,0.01,1.73,-0.07,-0.04,-21.36,-4.2,11.95,3
726206,-1.01,-0.02,0.01,1.75,-0.21,-0.02,-21.36,-4.2,11.95,3
726220,-1.01,-0.02,0.01,1.77,0.25,-0.01,-21.36,-4.2,11.95,3
726231,-1.01,-0.02,0.01,1.73,0.56,-0.01,-21.48,-4.18,12.04,3
726243,-1.01,-0.02,0.02,1.72,0.64,-0.03,-21.48,-4.18,12.04,3
726254,-1.01,-0.02,0.02,1.71,0.43,-0.07,-21.48,-4.18,12.04,3
726266,-1.01,-0.02,0.02,1.73,-0.08,-0.07,-21.48,-4.18,12.04,3
726277,-1.01,-0.02,0.02,1.74,-0.68,-0.05,-21.42,-4.21,11.98,3
726289,-1.01,-0.02,0.01,1.76,-0.98,3.36,-21.42,-4.21,11.98,3
726301,-1.01,-0.02,0.01,1.76,-0.69,2.62,-21.42,-4.21,11.98,3
726315,-1.01,-0.02,0.02,1.79,-0.13,1.61,-21.42,-4.21,11.98,3
726326,-1.01,-0.02,0.02,1.8,-0.06,1.25,-21.45,-4.26,11.82,3
726340,-1.01,-0.02,0.02,1.78,-0.16,0.74,-21.45,-4.26,11.82,3
726351,-1.01,-0.02,0.02,1.77,-0.18,0.55,-21.45,-4.26,11.82,3
726362,-1.01,-0.02,0.02,1.76,-0.01,0.43,-21.45,-4.26,11.82,3
726374,-1.01,-0.02,0.02,1.73,0.44,0.26,-21.39,-4.31,11.62,3
726385,-1.01,-0.02,0.02,1.73,0.42,0.19,-21.39,-4.31,11.62,3
726397,-1.01,-0.02,0.02,1.69,0.22,0.1,-21.39,-4.31,11.62,3
726409,-1.01,-0.02,0.02,1.73,-0.91,0.06,-21.39,-4.31,11.62,3
726421,-1.01,-0.02,0.02,1.73,-1.61,0.07,-21.39,-4.31,11.62,3
726433,-1.01,-0.02,0.02,1.73,-2.72,0.08,-21.43,-4.29,11.7,3
726444,-1.01,-0.02,0.01,1.75,-2.74,0.06,-21.43,-4.29,11.7,3
726456,-1.01,-0.02,0.01,1.74,-2.29,0.04,-21.43,-4.29,11.7,3
726468,-1.01,-0.02,0.01,1.74,-0.99,0.01,-21.43,-4.29,11.7,3
726480,-1.01,-0.02,0.02,1.74,-0.49,0.05,-21.4,-4.29,11.37,3
726491,-1.01,-0.02,0.02,1.74,-0.32,0.05,-21.4,-4.29,11.37,3
726504,-1.01,-0.02,0.02,1.71,-0.98,0.05,-21.4,-4.29,11.37,3
726516,-1.01,-0.02,0.02,1.71,-1.42,0.05,-21.4,-4.29,11.37,3
726529,-1.01,-0.02,0.01,1.66,-1.64,0.04,-21.44,-4.32,11.55,3
726540,-1.01,-0.02,0.01,1.64,-1.32,0.02,-21.44,-4.32,11.55,3
726554,-1.01,-0.02,0.01,1.67,-0.38,-0.02,-21.44,-4.32,11.55,3
726566,-1.01,-0.02,0.02,1.68,0.07,-0.0,-21.44,-4.32,11.55,3
726577,-1.01,-0.02,0.02,1.71,0.3,0.01,-21.5,-4.22,11.85,3
726589,-1.01,-0.02,0.02,1.7,0.22,-0.02,-21.5,-4.22,11.85,3
726600,-1.01,-0.02,0.02,1.71,0.08,-0.01,-21.5,-4.22,11.85,3
726612,-1.01,-0.02,0.02,1.74,-0.17,0.02,-21.5,-4.22,11.85,3
726625,-1.01,-0.02,0.02,1.73,-0.49,-0.03,-21.57,-4.12,11.96,3
726637,-1.01,-0.02,0.02,1.72,-0.38,-0.01,-21.57,-4.12,11.96,3
726649,-1.01,-0.02,0.02,1.69,0.05,0.01,-21.57,-4.12,11.96,3
726661,-1.01,-0.02,0.02,1.7,0.3,0.0,-21.57,-4.12,11.96,3
726674,-1.01,-0.02,0.02,1.72,0.59,-0.01,-21.49,-4.19,11.85,3
726685,-1.01,-0.02,0.02,1.73,0.57,0.01,-21.49,-4.19,11.85,3
726696,-1.01,-0.02,0.02,1.73,0.5,0.0,-21.49,-4.19,11.85,3
726707,-1.01,-0.02,0.02,1.77,-0.04,0.04,-21.49,-4.19,11.85,3
726718,-1.01,-0.02,0.02,1.74,-0.19,0.04,-21.49,-4.19,11.85,3
726730,-1.01,-0.02,0.02,1.72,0.02,0.05,-21.49,-4.18,11.87,3
726740,-1.01,-0.02,0.02,1.69,0.4,0.05,-21.49,-4.18,11.87,3
726752,-1.01,-0.02,0.02,1.63,1.2,-0.0,-21.49,-4.18,11.87,3
726764,-1.01,-0.02,0.03,1.61,1.1,0.01,-21.49,-4.18,11.87,3
726775,-1.0,-0.02,0.03,1.59,0.26,-0.0,-21.4,-4.19,11.95,3
726787,-1.01,-0.03,0.03,1.63,-1.61,-0.02,-21.4,-4.19,11.95,3
726799,-1.01,-0.02,0.02,1.7,-2.03,-0.05,-21.4,-4.19,11.95,3
726813,-1.01,-0.02,0.01,1.94,-1.59,-0.02,-21.4,-4.19,11.95,3
726824,-1.01,-0.02,0.01,2.14,-0.44,-0.0,-21.38,-4.1,12.0,3
726838,-1.01,-0.01,0.02,2.11,2.61,-0.03,-21.38,-4.1,12.0,3
726849,-1.01,-0.01,0.02,2.02,3.97,-0.06,-21.38,-4.1,12.0,3
726862,-1.01,-0.01,0.03,1.9,5.18,-0.05,-21.38,-4.1,12.0,3
726874,-1.01,-0.01,0.03,1.84,4.98,-0.03,-21.37,-4.08,12.04,3
726886,-1.01,-0.01,0.03,1.85,4.44,-0.01,-21.37,-4.08,12.04,3
726898,-1.01,-0.02,0.04,1.77,2.65,-0.04,-21.37,-4.08,12.04,3
726910,-1.01,-0.02,0.03,1.73,1.8,-0.05,-21.37,-4.08,12.04,3
726925,-1.01,-0.02,0.02,1.72,1.36,-0.03,-21.33,-4.06,11.88,3
726936,-1.01,-0.02,0.02,1.73,2.3,-0.04,-21.33,-4.06,11.88,3
726947,-1.01,-0.02,0.02,1.69,3.78,-0.03,-21.33,-4.06,11.88,3
726959,-1.01,-0.02,0.03,1.7,6.39,-0.02,-21.33,-4.06,11.88,3
726971,-1.01,-0.02,0.04,1.74,6.96,-0.04,-21.33,-4.06,11.88,3
726984,-1.01,-0.02,0.05,1.77,6.37,-0.04,-21.37,-4.02,11.66,3
726996,-1.01,-0.02,0.05,1.74,5.49,-0.07,-21.37,-4.02,11.66,3
727006,-1.0,-0.02,0.05,1.75,4.39,-0.08,-21.37,-4.02,11.66,3
727017,-1.0,-0.02,0.05,1.77,2.41,-0.04,-21.37,-4.02,11.66,3
727029,-1.01,-0.02,0.04,1.74,1.92,-0.03,-21.39,-3.94,11.46,3
727041,-1.01,-0.02,0.03,1.71,2.01,-0.02,-21.39,-3.94,11.46,3
727053,-1.01,-0.02,0.04,1.69,3.73,-0.02,-21.39,-3.94,11.46,3
727065,-1.01,-0.02,0.04,1.69,4.84,-0.02,-21.39,-3.94,11.46,3
727077,-1.01,-0.02,0.04,1.7,6.11,-0.02,-21.41,-3.94,11.27,3
727088,-1.0,-0.02,0.06,1.71,5.88,-0.07,-21.41,-3.94,11.27,3
727100,-1.0,-0.02,0.06,1.71,4.97,-0.04,-21.41,-3.94,11.27,3
727111,-1.0,-0.02,0.06,1.67,2.47,0.04,-21.41,-3.94,11.27,3
727123,-1.0,-0.02,0.06,1.69,1.4,0.03,-21.54,-4.03,11.06,3
727135,-1.01,-0.02,0.05,1.68,0.69,0.04,-21.54,-4.03,11.06,3
727147,-1.01,-0.02,0.05,1.65,0.46,-0.04,-21.54,-4.03,11.06,3
727159,-1.01,-0.02,0.05,1.63,0.56,-0.03,-21.54,-4.03,11.06,3
727172,-1.01,-0.02,0.06,1.64,0.69,0.04,-21.6,-4.17,10.84,3
727184,-1.01,-0.02,0.06,1.66,0.64,0.04,-21.6,-4.17,10.84,3
727196,-1.01,-0.02,0.06,1.65,0.48,0.02,-21.6,-4.17,10.84,3
727208,-1.01,-0.02,0.06,1.76,-0.05,0.03,-21.6,-4.17,10.84,3
727220,-1.01,-0.02,0.06,1.8,-0.05,0.06,-21.6,-4.17,10.84,3
727232,-1.01,-0.02,0.05,1.78,0.33,0.06,-21.64,-4.17,10.86,3
727243,-1.01,-0.02,0.05,1.78,1.09,0.03,-21.64,-4.17,10.86,3
727253,-1.01,-0.02,0.06,1.78,1.69,0.01,-21.64,-4.17,10.86,3
727264,-1.0,-0.02,0.06,1.75,1.6,-0.0,-21.64,-4.17,10.86,3
727278,-1.0,-0.02,0.07,1.75,0.04,0.02,-21.58,-4.21,10.82,3
727288,-1.0,-0.02,0.07,1.74,-1.2,0.06,-21.58,-4.21,10.82,3
727301,-1.01,-0.02,0.06,1.74,-3.82,0.03,-21.58,-4.21,10.82,3
727312,-1.01,-0.02,0.06,1.76,-4.59,0.01,-21.58,-4.21,10.82,3
727323,-1.01,-0.02,0.05,1.74,-4.72,0.02,-21.55,-4.27,10.74,3
727337,-1.01,-0.02,0.05,1.75,-3.88,0.06,-21.55,-4.27,10.74,3
727348,-1.01,-0.02,0.05,1.73,-3.32,0.02,-21.55,-4.27,10.74,3
727362,-1.01,-0.02,0.05,1.75,-2.83,0.0,-21.55,-4.27,10.74,3
727374,-1.01,-0.02,0.06,1.74,-2.81,-0.01,-21.48,-4.32,10.7,3
727387,-1.01,-0.02,0.06,1.79,-3.12,-0.02,-21.48,-4.32,10.7,3
727399,-1.01,-0.02,0.06,1.76,-3.5,-0.0,-21.48,-4.32,10.7,3
727410,-1.01,-0.02,0.06,1.73,-4.02,0.03,-21.48,-4.32,10.7,3
727423,-1.01,-0.02,0.05,1.74,-4.89,0.06,-21.53,-4.29,10.79,3
727434,-1.01,-0.02,0.05,1.74,-4.93,0.09,-21.53,-4.29,10.79,3
727448,-1.01,-0.02,0.05,1.76,-4.49,0.05,-21.53,-4.29,10.79,3
727460,-1.01,-0.02,0.05,1.79,-4.5,0.07,-21.53,-4.29,10.79,3
727471,-1.01,-0.02,0.05,1.76,-4.58,0.07,-21.5,-4.39,10.91,3
727482,-1.01,-0.02,0.05,1.75,-4.67,0.04,-21.5,-4.39,10.91,3
727493,-1.01,-0.02,0.05,1.75,-5.12,0.02,-21.5,-4.39,10.91,3
727504,-1.01,-0.02,0.05,1.73,-5.56,0.01,-21.5,-4.39,10.91,3
727516,-1.01,-0.02,0.05,1.73,-6.47,0.02,-21.5,-4.39,10.91,3
727527,-1.01,-0.02,0.04,1.72,-6.97,0.04,-21.48,-4.31,11.18,3
727538,-1.01,-0.02,0.04,1.75,-7.33,0.05,-21.48,-4.31,11.18,3
727551,-1.01,-0.01,0.04,1.78,-7.89,0.07,-21.48,-4.31,11.18,3
727563,-1.01,-0.01,0.04,1.55,-8.28,0.09,-21.48,-4.31,11.18,3
727576,-0.99,-0.02,0.04,-0.72,-11.04,0.24,-21.4,-4.24,11.27,3
727588,-1.0,-0.02,0.03,-2.66,-13.86,0.15,-21.4,-4.24,11.27,3
727601,-1.0,-0.02,0.03,-3.59,-17.0,0.17,-21.4,-4.24,11.27,3
727613,-1.01,-0.02,0.03,-2.65,-16.75,0.12,-21.4,-4.24,11.27,3
727624,-1.01,-0.02,0.02,-1.68,-15.94,0.09,-21.46,-4.36,11.39,3
727636,-1.01,-0.02,0.01,-0.36,-13.29,0.08,-21.46,-4.36,11.39,3
727648,-1.01,-0.01,0.01,0.0,-11.85,0.05,-21.46,-4.36,11.39,3
727661,-1.01,-0.02,0.01,0.34,-10.87,0.05,-21.46,-4.36,11.39,3
727673,-1.01,-0.02,0.01,0.37,-11.15,0.04,-21.53,-4.4,11.8,3
727685,-1.01,-0.01,0.01,0.26,-11.91,0.01,-21.53,-4.4,11.8,3
727697,-1.01,-0.01,0.0,0.47,-12.85,-0.03,-21.53,-4.4,11.8,3
727709,-1.01,-0.02,0.0,0.54,-13.26,-0.02,-21.53,-4.4,11.8,3
727724,-1.01,-0.02,-0.01,0.81,-13.49,-0.02,-21.48,-4.44,12.14,3
727736,-1.02,-0.02,-0.01,0.97,-12.67,-0.0,-21.48,-4.44,12.14,3
727747,-1.01,-0.02,-0.01,1.26,-10.06,0.14,-21.48,-4.44,12.14,3
727759,-1.01,-0.02,-0.01,1.4,-9.18,0.2,-21.48,-4.44,12.14,3
727772,-1.01,-0.02,-0.02,1.46,-8.3,0.23,-21.46,-4.34,12.26,3
727783,-1.01,-0.02,-0.02,1.53,-7.52,0.22,-21.46,-4.34,12.26,3
727795,-1.01,-0.02,-0.02,1.58,-6.76,0.21,-21.46,-4.34,12.26,3
727809,-1.01,-0.02,-0.02,1.68,-5.36,0.21,-21.46,-4.34,12.26,3
727822,-1.01,-0.02,-0.02,1.7,-4.73,0.19,-21.5,-4.4,12.76,3
727833,-1.01,-0.02,-0.02,1.69,-4.17,0.18,-21.5,-4.4,12.76,3
727844,-1.01,-0.01,-0.02,1.61,-4.21,0.15,-21.5,-4.4,12.76,3
727856,-1.01,-0.01,-0.02,1.34,-4.32,0.17,-21.5,-4.4,12.76,3
727867,-1.01,-0.01,-0.02,0.4,-4.53,0.28,-21.5,-4.4,12.76,3
727879,-1.01,-0.02,-0.02,-0.08,-4.45,0.33,-21.31,-4.37,13.08,3
727891,-1.01,-0.02,-0.02,-0.29,-4.58,0.36,-21.31,-4.37,13.08,3
727903,-1.01,-0.02,-0.02,-0.85,-5.14,0.49,-21.31,-4.37,13.08,3
727914,-1.01,-0.02,-0.02,-1.36,-5.84,0.6,-21.31,-4.37,13.08,3
727925,-1.01,-0.02,-0.02,-2.04,-7.46,0.75,-21.22,-4.38,13.29,3
727937,-1.01,-0.02,-0.03,-2.24,-10.97,1.15,-21.22,-4.38,13.29,3
727948,-1.01,-0.02,-0.03,-2.08,-11.98,1.31,-21.22,-4.38,13.29,3
727960,-1.01,-0.02,-0.04,-2.32,-12.89,1.48,-21.22,-4.38,13.29,3
727973,-1.01,-0.02,-0.04,-3.36,-14.39,1.54,-21.2,-4.34,13.66,3
727985,-1.01,-0.02,-0.05,-3.23,-13.88,1.49,-21.2,-4.34,13.66,3
727997,-1.01,-0.02,-0.05,-2.26,-10.76,1.29,-21.2,-4.34,13.66,3
728009,-1.01,-0.02,-0.05,-1.88,-9.62,1.28,-21.2,-4.34,13.66,3
728020,-1.01,-0.02,-0.05,-1.7,-8.99,1.3,-21.14,-4.41,14.03,3
728032,-1.01,-0.02,-0.04,-1.59,-8.65,1.41,-21.14,-4.41,14.03,3
728044,-1.01,-0.02,-0.05,-1.93,-8.99,1.49,-21.14,-4.41,14.03,3
728057,-1.01,-0.02,-0.05,-1.89,-10.64,2.03,-21.14,-4.41,14.03,3
728068,-1.01,-0.02,-0.05,-1.65,-11.03,2.18,-21.14,-4.41,14.03,3
728079,-1.01,-0.02,-0.06,-1.38,-11.1,2.24,-21.1,-4.32,14.24,3
728090,-1.01,-0.02,-0.06,-1.37,-11.81,2.49,-21.1,-4.32,14.24,3
728102,-1.01,-0.03,-0.06,-1.5,-12.35,2.65,-21.1,-4.32,14.24,3
728114,-1.01,-0.03,-0.06,-1.63,-12.85,2.78,-21.1,-4.32,14.24,3
728128,-1.01,-0.03,-0.07,-1.69,-13.65,2.9,-20.94,-4.3,14.77,3
728140,-1.01,-0.03,-0.07,-1.66,-13.82,2.99,-20.94,-4.3,14.77,3
728152,-1.01,-0.03,-0.08,-1.53,-13.74,2.99,-20.94,-4.3,14.77,3
728164,-1.01,-0.03,-0.08,-1.31,-13.23,2.89,-20.94,-4.3,14.77,3
728176,-1.01,-0.03,-0.09,-1.83,-11.49,2.43,-20.83,-4.27,15.07,3
728187,-1.01,-0.03,-0.09,-2.28,-10.62,2.18,-20.83,-4.27,15.07,3
728198,-1.01,-0.03,-0.09,-2.78,-9.93,1.91,-20.83,-4.27,15.07,3
728211,-1.01,-0.03,-0.09,-3.3,-8.79,1.61,-20.83,-4.27,15.07,3
728222,-1.01,-0.03,-0.09,-3.42,-8.26,1.51,-20.83,-4.24,15.43,3
728234,-1.01,-0.03,-0.09,-3.69,-7.95,1.5,-20.83,-4.24,15.43,3
728246,-1.01,-0.03,-0.1,-3.43,-8.06,1.44,-20.83,-4.24,15.43,3
728257,-1.01,-0.03,-0.1,-2.84,-8.1,1.5,-20.83,-4.24,15.43,3
728269,-1.01,-0.03,-0.1,-2.08,-8.01,1.53,-20.83,-4.24,15.43,3
728282,-1.01,-0.03,-0.1,-0.67,-7.38,1.52,-20.74,-4.18,15.78,3
728294,-1.01,-0.03,-0.1,-0.18,-6.94,1.44,-20.74,-4.18,15.78,3
728306,-1.01,-0.03,-0.11,0.29,-6.36,1.35,-20.74,-4.18,15.78,3
728318,-1.01,-0.03,-0.11,0.47,-6.1,1.3,-20.74,-4.18,15.78,3
728329,-1.01,-0.03,-0.11,0.73,-5.64,1.19,-20.67,-4.12,16.04,3
728341,-1.01,-0.04,-0.11,1.15,-4.2,0.82,-20.67,-4.12,16.04,3
728352,-1.01,-0.04,-0.11,1.26,-3.42,0.64,-20.67,-4.12,16.04,3
728363,-1.01,-0.04,-0.11,1.41,-2.72,0.46,-20.67,-4.12,16.04,3
728377,-1.01,-0.04,-0.11,2.08,-1.67,0.18,-20.64,-4.12,16.14,3
728389,-1.01,-0.04,-0.11,2.48,-1.11,0.1,-20.64,-4.12,16.14,3
728401,-1.01,-0.03,-0.11,3.34,-0.06,-0.04,-20.64,-4.12,16.14,3
728413,-1.01,-0.04,-0.11,4.14,0.64,-0.09,-20.64,-4.12,16.14,3
728425,-1.01,-0.04,-0.11,5.29,3.22,-0.61,-20.71,-4.04,16.27,3
728436,-1.01,-0.03,-0.1,5.78,4.35,-0.84,-20.71,-4.04,16.27,3
728448,-1.01,-0.04,-0.11,6.67,5.87,-1.13,-20.71,-4.04,16.27,3
728462,-1.01,-0.03,-0.1,7.49,6.43,-1.36,-20.71,-4.04,16.27,3
728473,-1.01,-0.03,-0.1,7.42,5.96,-1.3,-20.72,-3.87,16.09,3
728487,-1.01,-0.03,-0.1,6.96,5.19,-1.22,-20.72,-3.87,16.09,3
728499,-1.01,-0.03,-0.1,6.76,4.95,-1.18,-20.72,-3.87,16.09,3
728512,-1.01,-0.03,-0.1,6.75,5.91,-1.33,-20.72,-3.87,16.09,3
728524,-1.01,-0.03,-0.09,6.64,6.6,-1.46,-20.72,-3.77,16.08,3
728537,-1.01,-0.03,-0.09,6.44,7.74,-1.65,-20.72,-3.77,16.08,3
728548,-1.01,-0.03,-0.09,6.11,7.97,-1.72,-20.72,-3.77,16.08,3
728560,-1.01,-0.03,-0.08,5.6,7.55,-1.69,-20.72,-3.77,16.08,3
728572,-1.01,-0.03,-0.08,5.39,5.83,-1.44,-20.73,-3.83,16.0,3
728584,-1.01,-0.03,-0.09,6.05,5.41,-1.31,-20.73,-3.83,16.0,3
728597,-1.01,-0.03,-0.08,6.58,5.61,-1.42,-20.73,-3.83,16.0,3
728608,-1.01,-0.03,-0.08,6.33,5.9,-1.42,-20.73,-3.83,16.0,3
728621,-1.01,-0.03,-0.08,5.94,6.03,-1.45,-20.68,-3.87,15.93,3
728633,-1.01,-0.03,-0.07,5.02,5.41,-1.33,-20.68,-3.87,15.93,3
728645,-1.01,-0.03,-0.08,4.95,4.97,-1.21,-20.68,-3.87,15.93,3
728659,-1.01,-0.02,-0.08,6.46,5.7,-1.29,-20.68,-3.87,15.93,3
728670,-1.01,-0.03,-0.08,7.59,6.98,-1.42,-20.74,-3.9,15.75,3
728684,-1.01,-0.02,-0.06,8.85,9.75,-1.74,-20.74,-3.9,15.75,3
728696,-1.01,-0.02,-0.05,8.8,11.26,-2.05,-20.74,-3.9,15.75,3
728710,-1.0,-0.02,-0.05,8.55,13.17,-2.34,-20.74,-3.9,15.75,3
728721,-1.0,-0.02,-0.04,7.84,11.16,-1.97,-20.78,-3.89,15.59,3
728733,-1.0,-0.02,-0.04,6.74,7.96,-1.46,-20.78,-3.89,15.59,3
728745,-1.01,-0.02,-0.05,5.25,3.2,-0.72,-20.78,-3.89,15.59,3
728757,-1.01,-0.02,-0.06,5.38,2.14,-0.56,-20.78,-3.89,15.59,3
728772,-1.01,-0.02,-0.06,6.16,3.8,-0.78,-20.73,-3.94,15.35,3
728783,-1.01,-0.02,-0.05,5.42,4.23,-0.81,-20.73,-3.94,15.35,3
728796,-1.01,-0.02,-0.05,3.99,3.64,-0.74,-20.73,-3.94,15.35,3
728808,-1.01,-0.02,-0.05,3.44,2.74,-0.62,-20.73,-3.94,15.35,3
728819,-1.01,-0.02,-0.05,3.06,1.76,-0.44,-20.9,-4.04,15.14,3
728830,-1.01,-0.02,-0.05,2.8,1.35,-0.37,-20.9,-4.04,15.14,3
728841,-1.01,-0.02,-0.05,2.56,1.68,-0.45,-20.9,-4.04,15.14,3
728853,-1.01,-0.02,-0.05,2.35,1.86,-0.49,-20.9,-4.04,15.14,3
728865,-1.01,-0.02,-0.04,2.19,1.62,-0.45,-20.9,-4.04,15.14,3
728876,-1.01,-0.02,-0.05,2.11,1.45,-0.39,-21.01,-4.07,15.13,3
728889,-1.01,-0.02,-0.05,1.95,1.91,-0.48,-21.01,-4.07,15.13,3
728900,-1.01,-0.02,-0.05,1.9,2.84,-0.57,-21.01,-4.07,15.13,3
728912,-1.01,-0.02,-0.05,1.87,4.1,-0.71,-21.01,-4.07,15.13,3
728925,-1.01,-0.02,-0.05,1.86,7.11,-1.05,-21.04,-4.2,15.05,3
728937,-1.02,-0.02,-0.04,2.2,8.5,-1.16,-21.04,-4.2,15.05,3
728951,-1.01,-0.02,-0.03,6.08,13.67,-1.47,-21.04,-4.2,15.05,3
728963,-1.01,-0.02,-0.02,7.37,14.99,-1.4,-21.04,-4.2,15.05,3
728976,-1.0,-0.02,-0.02,7.65,12.37,-1.04,-21.02,-4.23,14.92,3
728988,-1.0,-0.02,-0.01,6.57,9.59,-0.81,-21.02,-4.23,14.92,3
729002,-1.01,-0.02,-0.02,4.73,4.0,-0.37,-21.02,-4.23,14.92,3
729014,-1.01,-0.02,-0.02,4.07,2.29,-0.25,-21.02,-4.23,14.92,3
729026,-1.01,-0.02,-0.03,3.22,2.54,-0.22,-21.04,-4.21,14.45,3
729037,-1.01,-0.02,-0.03,2.94,3.45,-0.28,-21.04,-4.21,14.45,3
729049,-1.01,-0.02,-0.02,2.76,4.21,-0.37,-21.04,-4.21,14.45,3
729060,-1.01,-0.02,-0.02,2.43,4.33,-0.35,-21.04,-4.21,14.45,3
729072,-1.01,-0.02,-0.01,2.29,3.49,-0.27,-21.09,-4.29,14.09,3
729083,-1.01,-0.02,-0.01,2.15,2.43,-0.21,-21.09,-4.29,14.09,3
729096,-1.01,-0.02,-0.01,1.95,0.9,-0.12,-21.09,-4.29,14.09,3
729107,-1.01,-0.02,-0.01,1.91,0.35,-0.1,-21.09,-4.29,14.09,3
729120,-1.01,-0.02,-0.01,1.88,0.01,-0.08,-21.06,-4.19,13.73,3
729131,-1.01,-0.02,-0.01,1.87,-0.3,-0.05,-21.06,-4.19,13.73,3
729143,-1.01,-0.02,-0.01,1.86,-0.64,-0.04,-21.06,-4.19,13.73,3
729157,-1.01,-0.02,-0.01,1.97,-1.27,0.04,-21.06,-4.19,13.73,3
729170,-1.01,-0.02,-0.01,1.93,-1.45,0.06,-21.08,-4.23,13.72,3
729181,-1.01,-0.02,-0.01,1.8,-1.95,0.08,-21.08,-4.23,13.72,3
729192,-1.01,-0.02,-0.01,1.72,-2.13,0.06,-21.08,-4.23,13.72,3
729203,-1.01,-0.02,-0.01,1.73,-2.27,0.06,-21.08,-4.23,13.72,3
729216,-1.01,-0.02,-0.02,1.76,-2.2,0.07,-21.08,-4.23,13.72,3
729228,-1.01,-0.02,-0.02,1.77,-2.09,0.04,-21.17,-4.28,13.66,3
729240,-1.01,-0.02,-0.01,1.74,-1.97,0.01,-21.17,-4.28,13.66,3
729252,-1.01,-0.02,-0.01,1.73,-2.2,0.03,-21.17,-4.28,13.66,3
729264,-1.01,-0.02,-0.01,1.73,-2.41,0.07,-21.17,-4.28,13.66,3
729277,-1.01,-0.02,-0.02,1.73,-2.91,0.15,-21.16,-4.31,13.52,3
729289,-1.01,-0.02,-0.02,1.74,-3.02,0.14,-21.16,-4.31,13.52,3
729303,-1.01,-0.02,-0.02,1.73,-2.56,0.15,-21.16,-4.31,13.52,3
729315,-1.01,-0.02,-0.02,1.74,-2.07,0.12,-21.16,-4.31,13.52,3
729327,-1.01,-0.02,-0.02,1.79,-0.94,-0.03,-21.08,-4.43,13.38,3
729338,-1.01,-0.02,-0.02,1.85,-0.25,-0.07,-21.08,-4.43,13.38,3
729349,-1.01,-0.02,-0.03,2.02,0.52,-0.1,-21.08,-4.43,13.38,3
729362,-1.01,-0.02,-0.02,3.12,1.64,-0.16,-21.08,-4.43,13.38,3
729374,-1.01,-0.02,-0.01,2.91,2.44,-0.23,-20.96,-4.4,13.31,3
729387,-1.01,-0.02,-0.01,2.58,1.9,-0.16,-20.96,-4.4,13.31,3
729398,-1.01,-0.02,-0.01,2.42,1.42,-0.11,-20.96,-4.4,13.31,3
729410,-1.01,-0.02,-0.01,2.46,0.92,-0.07,-20.96,-4.4,13.31,3
729423,-1.01,-0.02,-0.01,2.62,0.84,-0.06,-21.04,-4.31,13.14,3
729435,-1.01,-0.01,-0.02,2.55,1.11,-0.05,-21.04,-4.31,13.14,3
729449,-1.01,-0.01,-0.02,3.87,0.62,-0.06,-21.04,-4.31,13.14,3
729461,-1.01,-0.01,-0.01,4.38,0.46,-0.06,-21.04,-4.31,13.14,3
729474,-1.01,-0.02,-0.01,4.53,0.59,-0.03,-21.07,-4.2,13.0,3
729486,-1.01,-0.02,-0.01,3.96,1.19,-0.05,-21.07,-4.2,13.0,3
729499,-1.01,-0.02,-0.01,3.1,1.6,-0.05,-21.07,-4.2,13.0,3
729510,-1.01,-0.02,-0.01,2.79,1.38,-0.06,-21.07,-4.2,13.0,3
729521,-1.01,-0.02,-0.01,2.54,0.84,-0.03,-21.11,-4.25,12.85,3
729532,-1.01,-0.02,-0.01,2.36,0.23,-0.01,-21.11,-4.25,12.85,3
729543,-1.01,-0.01,-0.02,2.2,-0.22,-0.02,-21.11,-4.25,12.85,3
729555,-1.01,-0.02,-0.02,2.39,-0.74,-0.0,-21.11,-4.25,12.85,3
729570,-1.01,-0.02,-0.01,4.31,-2.22,0.06,-21.18,-4.3,12.63,3
729582,-1.01,-0.02,-0.01,4.59,-2.29,0.08,-21.18,-4.3,12.63,3
729593,-1.01,-0.02,-0.01,3.48,-1.12,0.03,-21.18,-4.3,12.63,3
729604,-1.01,-0.02,-0.01,3.05,-0.78,0.01,-21.18,-4.3,12.63,3
729616,-1.01,-0.02,-0.01,2.77,-0.27,0.02,-21.18,-4.3,12.63,3
729629,-1.01,-0.02,-0.01,2.92,0.36,0.04,-21.18,-4.37,12.24,3
729641,-1.01,-0.02,-0.01,2.65,0.9,0.06,-21.18,-4.37,12.24,3
729655,-1.01,-0.02,-0.0,2.28,0.88,0.03,-21.18,-4.37,12.24,3
729666,-1.01,-0.02,0.0,2.16,0.24,0.01,-21.18,-4.37,12.24,3
729677,-1.0,-0.02,0.0,2.05,-0.85,-0.0,-21.27,-4.49,12.29,3
729690,-1.01,-0.01,-0.0,0.42,-5.1,3.41,-21.27,-4.49,12.29,3
729702,-1.02,-0.01,-0.01,-0.25,-6.87,2.68,-21.27,-4.49,12.29,3
729715,-1.02,-0.02,-0.02,0.27,-6.0,1.72,-21.27,-4.49,12.29,3
729727,-1.02,-0.02,-0.02,0.61,-4.92,1.37,-21.22,-4.48,12.49,3
729740,-1.01,-0.02,-0.01,1.05,-2.61,0.73,-21.22,-4.48,12.49,3
729752,-1.01,-0.02,-0.01,1.24,-2.12,0.54,-21.22,-4.48,12.49,3
729763,-1.01,-0.02,-0.01,1.34,-2.16,0.44,-21.22,-4.48,12.49,3
729776,-1.01,-0.02,-0.02,1.5,-1.69,0.3,-21.15,-4.42,12.73,3
729788,-1.01,-0.02,-0.02,1.56,-1.29,0.22,-21.15,-4.42,12.73,3
729799,-1.01,-0.02,-0.02,1.53,-0.36,0.08,-21.15,-4.42,12.73,3
729810,-1.01,-0.02,-0.02,1.07,-0.21,0.06,-21.15,-4.42,12.73,3
729821,-1.01,-0.02,-0.01,1.03,0.09,0.07,-21.14,-4.43,12.73,3
729835,-1.01,-0.02,-0.01,1.01,-0.14,0.01,-21.14,-4.43,12.73,3
729847,-1.01,-0.02,-0.01,0.76,-0.49,-0.03,-21.14,-4.43,12.73,3
729861,-1.01,-0.02,-0.01,0.36,-1.5,-0.02,-21.14,-4.43,12.73,3
729872,-1.01,-0.02,-0.01,0.27,-2.14,0.01,-21.07,-4.47,12.65,3
729885,-1.01,-0.02,-0.01,0.55,-2.67,0.02,-21.07,-4.47,12.65,3
729896,-1.01,-0.01,-0.01,0.68,-3.31,0.09,-21.07,-4.47,12.65,3
729907,-1.01,-0.02,-0.01,0.83,-4.03,0.21,-21.07,-4.47,12.65,3
729918,-1.01,-0.02,-0.01,0.55,-4.45,0.23,-20.99,-4.46,12.72,3
729930,-1.02,-0.02,-0.03,0.17,-4.23,0.23,-20.99,-4.46,12.72,3
729942,-1.02,-0.02,-0.03,0.44,-2.88,0.07,-20.99,-4.46,12.72,3
729956,-1.02,-0.03,-0.03,0.9,1.71,-0.32,-20.99,-4.46,12.72,3
729968,-1.01,-0.02,-0.02,0.8,3.46,-0.35,-20.93,-4.49,12.79,3
729980,-1.01,-0.03,-0.01,0.58,3.15,-0.18,-20.93,-4.49,12.79,3
729991,-1.0,-0.02,0.0,0.39,2.03,-0.14,-20.93,-4.49,12.79,3
730003,-1.0,-0.02,0.0,0.02,-0.14,-0.04,-20.93,-4.49,12.79,3
730015,-1.01,-0.02,-0.01,-0.9,-3.92,0.07,-20.93,-4.49,12.79,3
730027,-1.01,-0.02,-0.01,-0.87,-3.92,0.09,-20.82,-4.41,12.59,3
730041,-1.02,-0.01,-0.02,-0.25,-2.46,0.0,-20.82,-4.41,12.59,3
730053,-1.01,-0.01,-0.02,0.21,-0.84,-0.08,-20.82,-4.41,12.59,3
730068,-1.01,-0.01,-0.01,0.82,0.27,-0.08,-20.77,-4.42,12.92,3
730080,-1.01,-0.01,-0.01,1.02,-0.39,-0.02,-20.77,-4.42,12.92,3
730091,-1.01,-0.01,-0.01,1.22,-1.31,0.01,-20.77,-4.42,12.92,3
730102,-1.01,-0.01,-0.01,1.22,-1.7,0.05,-20.77,-4.42,12.92,3
730113,-1.01,-0.01,-0.01,0.91,-1.54,0.04,-20.77,-4.42,12.92,3
730124,-1.01,-0.02,-0.01,0.68,-1.1,0.0,-20.87,-4.4,13.09,3
730136,-1.01,-0.02,-0.01,1.07,-0.9,0.01,-20.87,-4.4,13.09,3
730148,-1.01,-0.02,-0.01,1.2,-1.14,0.05,-20.87,-4.4,13.09,3
730162,-1.01,-0.02,-0.01,1.43,-2.75,0.18,-20.87,-4.4,13.09,3
730173,-1.01,-0.02,-0.01,1.49,-3.7,0.3,-20.88,-4.43,13.12,3
730187,-1.01,-0.02,-0.02,1.54,-5.01,0.38,-20.88,-4.43,13.12,3
730199,-1.01,-0.01,-0.01,1.57,-5.19,0.4,-20.88,-4.43,13.12,3
730212,-1.01,-0.01,-0.02,1.5,-5.01,0.33,-20.88,-4.43,13.12,3
730223,-1.01,-0.02,-0.03,1.53,-3.92,0.25,-20.93,-4.31,13.12,3
730235,-1.01,-0.02,-0.03,1.56,-2.87,0.15,-20.93,-4.31,13.12,3
730247,-1.01,-0.02,-0.02,1.59,-1.82,0.06,-20.93,-4.31,13.12,3
730259,-1.01,-0.02,-0.02,1.61,-1.77,0.07,-20.93,-4.31,13.12,3
730271,-1.01,-0.02,-0.02,1.72,-2.41,0.08,-20.89,-4.26,13.19,3
730283,-1.01,-0.02,-0.02,1.73,-2.47,0.09,-20.89,-4.26,13.19,3
730295,-1.01,-0.02,-0.02,1.69,-2.24,0.07,-20.89,-4.26,13.19,3
730306,-1.01,-0.02,-0.03,1.74,-1.19,0.04,-20.89,-4.26,13.19,3
730318,-1.01,-0.02,-0.02,1.78,-0.67,0.0,-20.89,-4.24,13.18,3
730330,-1.01,-0.02,-0.02,1.94,-0.4,-0.01,-20.89,-4.24,13.18,3
730342,-1.01,-0.01,-0.02,2.48,-0.61,0.02,-20.89,-4.24,13.18,3
730353,-1.01,-0.01,-0.02,2.39,-1.27,0.05,-20.89,-4.24,13.18,3
730364,-1.01,-0.02,-0.02,2.26,-1.84,0.07,-20.89,-4.24,13.18,3
730377,-1.01,-0.02,-0.02,2.09,-2.1,0.12,-20.88,-4.33,13.48,3
730389,-1.01,-0.02,-0.02,2.06,-1.82,0.1,-20.88,-4.33,13.48,3
730400,-1.01,-0.02,-0.02,2.02,-1.16,0.04,-20.88,-4.33,13.48,3
730411,-1.01,-0.02,-0.02,1.98,-0.95,0.0,-20.88,-4.33,13.48,3
730423,-1.01,-0.02,-0.02,1.92,-0.85,-0.01,-20.9,-4.36,13.51,3
730436,-1.01,-0.02,-0.02,1.9,-1.0,-0.03,-20.9,-4.36,13.51,3
730448,-1.01,-0.02,-0.02,1.89,-1.28,-0.03,-20.9,-4.36,13.51,3
730462,-1.01,-0.02,-0.02,1.93,-2.3,0.09,-20.9,-4.36,13.51,3
730474,-1.01,-0.02,-0.03,2.68,-3.11,0.22,-20.78,-4.39,13.24,3
730488,-1.02,-0.02,-0.02,5.69,-5.11,0.61,-20.78,-4.39,13.24,3
730499,-1.02,-0.02,-0.03,6.97,-5.94,0.84,-20.78,-4.39,13.24,3
730510,-1.02,-0.02,-0.01,7.75,-6.52,0.99,-20.78,-4.39,13.24,3
730523,-1.01,-0.02,-0.02,5.85,-5.97,0.88,-20.71,-4.41,13.17,3
730535,-1.01,-0.02,-0.02,4.98,-5.75,0.81,-20.71,-4.41,13.17,3
730546,-1.01,-0.02,-0.02,3.69,-5.03,0.66,-20.71,-4.41,13.17,3
730557,-1.01,-0.02,-0.03,3.27,-4.69,0.6,-20.71,-4.41,13.17,3
730569,-1.01,-0.02,-0.03,2.94,-4.19,0.53,-20.83,-4.41,13.1,3
730582,-1.01,-0.01,-0.04,2.66,-2.71,0.31,-20.83,-4.41,13.1,3
730593,-1.01,-0.02,-0.03,2.97,-1.92,0.23,-20.83,-4.41,13.1,3
730605,-1.01,-0.02,-0.03,2.94,-1.03,0.11,-20.83,-4.41,13.1,3
730618,-1.01,-0.02,-0.02,2.75,-1.3,0.1,-20.81,-4.5,13.42,3
730630,-1.01,-0.02,-0.02,2.56,-2.41,0.24,-20.81,-4.5,13.42,3
730641,-1.01,-0.02,-0.02,2.2,-5.03,0.56,-20.81,-4.5,13.42,3
730652,-1.01,-0.02,-0.03,2.12,-5.74,0.68,-20.81,-4.5,13.42,3
730664,-1.01,-0.02,-0.04,2.08,-5.95,0.73,-20.81,-4.5,13.42,3
730677,-1.01,-0.02,-0.04,2.0,-5.3,0.72,-20.81,-4.49,13.6,3
730689,-1.01,-0.02,-0.04,1.99,-4.72,0.63,-20.81,-4.49,13.6,3
730703,-1.01,-0.02,-0.04,2.23,-4.11,0.54,-20.81,-4.49,13.6,3
730715,-1.01,-0.02,-0.04,2.14,-4.05,0.56,-20.81,-4.49,13.6,3
730727,-1.01,-0.02,-0.04,1.98,-4.18,0.57,-20.76,-4.53,13.69,3
730738,-1.01,-0.02,-0.04,1.91,-4.24,0.54,-20.76,-4.53,13.69,3
730750,-1.01,-0.02,-0.04,1.78,-4.41,0.55,-20.76,-4.53,13.69,3
730762,-1.01,-0.02,-0.04,0.45,-5.84,0.78,-20.76,-4.53,13.69,3
730773,-1.01,-0.02,-0.04,0.2,-6.51,0.87,-20.76,-4.51,13.79,3
730784,-1.01,-0.02,-0.04,0.49,-6.87,0.99,-20.76,-4.51,13.79,3
730794,-1.01,-0.02,-0.05,0.79,-6.85,0.99,-20.76,-4.51,13.79,3
730806,-1.01,-0.02,-0.05,1.2,-5.97,1.0,-20.76,-4.51,13.79,3
730817,-1.01,-0.02,-0.05,1.35,-5.4,0.97,-20.78,-4.57,13.8,3
730831,-1.01,-0.02,-0.05,1.35,-5.09,1.01,-20.78,-4.57,13.8,3
730843,-1.01,-0.02,-0.05,1.08,-5.47,1.09,-20.78,-4.57,13.8,3
730857,-1.01,-0.02,-0.06,0.91,-5.82,1.07,-20.78,-4.57,13.8,3
730868,-1.01,-0.02,-0.06,1.05,-5.22,0.89,-20.73,-4.5,13.73,3
730880,-1.01,-0.02,-0.06,1.19,-4.32,0.64,-20.73,-4.5,13.73,3
730892,-1.01,-0.02,-0.06,1.53,-2.65,0.26,-20.73,-4.5,13.73,3
730904,-1.01,-0.02,-0.05,1.88,-2.21,0.17,-20.73,-4.5,13.73,3
730918,-1.01,-0.02,-0.05,2.85,-2.65,0.38,-20.79,-4.45,13.66,3
730929,-1.01,-0.02,-0.05,3.29,-3.27,0.62,-20.79,-4.45,13.66,3
730941,-1.01,-0.02,-0.05,2.94,-4.82,1.11,-20.79,-4.45,13.66,3
730953,-1.01,-0.02,-0.06,2.71,-5.71,1.38,-20.79,-4.45,13.66,3
730965,-1.01,-0.02,-0.06,2.5,-6.54,1.56,-20.79,-4.45,13.66,3
730978,-1.01,-0.02,-0.07,2.23,-7.26,1.7,-20.89,-4.48,13.78,3
730990,-1.01,-0.03,-0.07,2.08,-7.23,1.62,-20.89,-4.48,13.78,3
731004,-1.01,-0.02,-0.07,1.69,-6.77,1.49,-20.89,-4.48,13.78,3
731016,-1.01,-0.02,-0.07,1.06,-6.85,1.46,-20.89,-4.46,13.93,3
731029,-1.01,-0.03,-0.06,-0.57,-8.12,1.59,-20.89,-4.46,13.93,3
731040,-1.01,-0.03,-0.07,-1.23,-8.53,1.58,-20.89,-4.46,13.93,3
731054,-1.01,-0.03,-0.07,-1.79,-9.04,1.59,-20.89,-4.46,13.93,3
731067,-1.01,-0.03,-0.07,-2.01,-9.35,1.7,-20.7,-4.47,14.22,3
731079,-1.01,-0.03,-0.08,-2.31,-9.2,1.65,-20.7,-4.47,14.22,3
731090,-1.01,-0.02,-0.08,-2.61,-8.45,1.48,-20.7,-4.47,14.22,3
731102,-1.01,-0.02,-0.08,-2.93,-7.91,1.3,-20.7,-4.47,14.22,3
731114,-1.01,-0.03,-0.08,-2.54,-6.51,1.11,-20.7,-4.47,14.22,3
731126,-1.01,-0.03,-0.08,-1.89,-6.31,1.15,-20.48,-4.4,14.23,3
731138,-1.01,-0.03,-0.08,-1.15,-6.48,1.21,-20.48,-4.4,14.23,3
731150,-1.01,-0.03,-0.08,0.92,-8.34,1.73,-20.48,-4.4,14.23,3
731162,-1.01,-0.03,-0.09,2.21,-8.36,1.9,-20.48,-4.4,14.23,3
731175,-1.01,-0.04,-0.1,3.67,-5.64,1.34,-20.5,-4.26,14.64,3
731187,-1.01,-0.04,-0.1,3.75,-3.75,0.83,-20.5,-4.26,14.64,3
731200,-1.01,-0.04,-0.09,3.87,0.35,-0.17,-20.5,-4.26,14.64,3
731211,-1.01,-0.04,-0.09,3.77,2.01,-0.54,-20.5,-4.26,14.64,3
731222,-1.01,-0.03,-0.09,3.19,3.11,-0.85,-20.57,-4.19,14.97,3
731233,-1.01,-0.03,-0.09,1.58,4.26,-1.32,-20.57,-4.19,14.97,3
731244,-1.01,-0.03,-0.09,1.33,4.67,-1.46,-20.57,-4.19,14.97,3
731256,-1.01,-0.03,-0.09,1.37,5.0,-1.51,-20.57,-4.19,14.97,3
731270,-1.01,-0.03,-0.08,1.61,4.88,-1.52,-20.56,-4.32,15.02,3
731281,-1.01,-0.03,-0.08,2.12,4.86,-1.56,-20.56,-4.32,15.02,3
731292,-1.01,-0.03,-0.08,3.12,5.82,-1.74,-20.56,-4.32,15.02,3
731304,-1.01,-0.03,-0.08,4.64,9.27,-2.19,-20.56,-4.32,15.02,3
731317,-1.01,-0.03,-0.08,4.61,9.97,-2.25,-20.53,-4.31,14.82,3
731328,-1.02,-0.03,-0.07,6.09,13.58,-2.89,-20.53,-4.31,14.82,3
731339,-1.01,-0.02,-0.07,7.09,16.6,-3.55,-20.53,-4.31,14.82,3
731351,-1.01,-0.02,-0.06,7.76,18.0,-3.41,-20.53,-4.31,14.82,3
731362,-1.0,-0.02,-0.06,6.48,16.0,-2.85,-20.53,-4.31,14.82,3
731374,-1.0,-0.02,-0.05,5.47,13.95,-2.5,-20.61,-4.42,14.54,3
731385,-1.0,-0.02,-0.05,4.61,11.84,-2.17,-20.61,-4.42,14.54,3
731398,-1.01,-0.02,-0.04,3.41,8.33,-1.63,-20.61,-4.42,14.54,3
731409,-1.01,-0.02,-0.05,3.02,7.12,-1.41,-20.61,-4.42,14.54,3
731420,-1.01,-0.02,-0.05,2.75,6.36,-1.24,-20.57,-4.5,14.26,3
731432,-1.01,-0.02,-0.05,2.35,5.93,-1.07,-20.57,-4.5,14.26,3
731444,-1.01,-0.02,-0.05,2.18,6.32,-1.08,-20.57,-4.5,14.26,3
731457,-1.01,-0.02,-0.05,1.97,9.21,-1.36,-20.57,-4.5,14.26,3
731468,-1.02,-0.02,-0.05,1.91,11.43,-1.52,-20.7,-4.49,14.17,3
731480,-1.02,-0.02,-0.05,1.88,13.54,-1.67,-20.7,-4.49,14.17,3
731492,-1.01,-0.02,-0.03,1.81,16.32,-1.8,-20.7,-4.49,14.17,3
731504,-1.01,-0.02,-0.02,1.78,16.46,-1.78,-20.7,-4.49,14.17,3
731518,-1.0,-0.02,-0.01,1.69,13.62,-1.21,-20.68,-4.58,13.82,3
731530,-1.01,-0.02,-0.01,1.68,11.38,-0.94,-20.68,-4.58,13.82,3
731542,-1.01,-0.02,-0.01,1.67,10.33,-0.6,-20.68,-4.58,13.82,3
731554,-1.02,-0.02,-0.02,1.66,11.56,-0.45,-20.68,-4.58,13.82,3
731566,-1.02,-0.02,-0.02,1.67,13.82,-0.34,-20.7,-4.63,13.52,3
731579,-1.02,-0.02,-0.01,1.66,19.1,-0.19,-20.7,-4.63,13.52,3
731590,-1.01,-0.02,-0.0,1.64,21.18,-0.17,-20.7,-4.63,13.52,3
731601,-1.01,-0.02,0.0,1.67,22.37,-0.13,-20.7,-4.63,13.52,3
731613,-1.0,-0.02,0.02,1.68,22.01,-0.08,-20.7,-4.63,13.52,3
731624,-1.0,-0.02,0.03,1.65,20.56,-0.06,-20.78,-4.67,13.21,3
731637,-1.01,-0.02,0.03,1.61,17.48,-0.05,-20.78,-4.67,13.21,3
731648,-1.0,-0.02,0.04,1.63,16.32,-0.03,-20.78,-4.67,13.21,3
731660,-1.01,-0.02,0.03,1.64,14.73,-0.02,-20.78,-4.67,13.21,3
731673,-1.01,-0.02,0.03,1.66,13.26,-0.0,-20.77,-4.72,12.7,3
731685,-1.01,-0.02,0.04,1.64,13.3,-0.01,-20.77,-4.72,12.7,3
731698,-1.01,-0.02,0.04,1.62,13.36,-0.01,-20.77,-4.72,12.7,3
731710,-1.0,-0.02,0.05,1.63,13.0,-0.02,-20.77,-4.72,12.7,3
731721,-1.0,-0.02,0.06,1.63,12.1,-0.03,-20.81,-4.74,12.19,3
731734,-1.0,-0.02,0.06,1.65,8.49,-0.01,-20.81,-4.74,12.19,3
731744,-1.0,-0.02,0.06,1.68,6.33,-0.02,-20.81,-4.74,12.19,3
731754,-1.0,-0.02,0.06,1.7,4.29,-0.03,-20.81,-4.74,12.19,3
731768,-1.01,-0.02,0.06,1.76,1.61,0.02,-20.85,-4.78,11.74,3
731780,-1.01,-0.02,0.05,1.72,1.08,0.04,-20.85,-4.78,11.74,3
731794,-1.01,-0.02,0.05,1.69,0.85,0.01,-20.85,-4.78,11.74,3
731805,-1.01,-0.02,0.05,1.68,1.05,0.02,-20.85,-4.78,11.74,3
731816,-1.01,-0.02,0.05,1.69,1.68,0.01,-20.94,-4.89,11.32,3
731828,-1.01,-0.02,0.05,1.71,2.6,-0.01,-20.94,-4.89,11.32,3
731839,-1.01,-0.02,0.05,1.72,4.11,-0.06,-20.94,-4.89,11.32,3
731853,-1.01,-0.02,0.06,1.7,6.77,-0.05,-20.94,-4.89,11.32,3
731866,-1.01,-0.02,0.06,1.7,7.31,-0.07,-20.94,-4.83,11.17,3
731880,-1.0,-0.02,0.07,1.69,6.09,0.01,-20.94,-4.83,11.17,3
731891,-1.0,-0.02,0.07,1.72,4.84,0.02,-20.94,-4.83,11.17,3
731905,-1.01,-0.02,0.06,1.76,3.15,0.05,-20.94,-4.83,11.17,3
731916,-1.01,-0.02,0.06,1.76,3.76,0.04,-21.0,-4.79,10.81,3
731929,-1.01,-0.02,0.06,1.76,6.29,0.04,-21.0,-4.79,10.81,3
731940,-1.01,-0.02,0.07,1.72,7.75,0.04,-21.0,-4.79,10.81,3
731950,-1.01,-0.02,0.07,1.69,8.74,0.04,-21.0,-4.79,10.81,3
731961,-1.0,-0.02,0.08,1.7,8.94,0.05,-21.0,-4.79,10.81,3
731974,-1.0,-0.02,0.08,1.7,8.24,0.05,-20.97,-4.7,10.74,3
731985,-1.0,-0.02,0.08,1.72,7.98,0.03,-20.97,-4.7,10.74,3
731997,-1.0,-0.02,0.08,1.75,7.7,0.04,-20.97,-4.7,10.74,3
732008,-1.01,-0.02,0.08,1.74,7.87,0.04,-20.97,-4.7,10.74,3
732019,-1.01,-0.02,0.08,1.71,8.5,0.05,-21.01,-4.76,10.39,3
732030,-1.01,-0.02,0.08,1.68,9.5,0.02,-21.01,-4.76,10.39,3
732041,-1.01,-0.02,0.08,1.72,12.44,0.03,-21.01,-4.76,10.39,3
732052,-1.01,-0.02,0.09,1.72,14.04,0.06,-21.01,-4.76,10.39,3
732063,-1.01,-0.02,0.09,1.74,15.33,0.06,-21.01,-4.76,10.39,3
732077,-1.0,-0.02,0.11,1.69,16.06,0.1,-21.05,-4.8,9.95,3
732087,-1.0,-0.02,0.12,1.65,15.27,0.06,-21.05,-4.8,9.95,3
732097,-0.99,-0.02,0.13,1.49,13.64,0.08,-21.05,-4.8,9.95,3
732107,-0.99,-0.02,0.13,0.49,10.47,0.17,-21.05,-4.8,9.95,3
732120,-0.99,-0.02,0.13,-1.59,3.82,0.43,-21.15,-4.71,9.39,3
732130,-1.0,-0.02,0.12,-2.03,1.66,0.48,-21.15,-4.71,9.39,3
732140,-1.0,-0.01,0.12,-2.5,0.13,0.49,-21.15,-4.71,9.39,3
732150,-1.0,-0.01,0.11,-2.37,-0.29,0.47,-21.15,-4.71,9.39,3
732161,-1.0,-0.02,0.11,-1.71,0.92,0.43,-21.15,-4.71,9.39,3
732173,-1.0,-0.02,0.12,-1.76,1.16,0.4,-21.23,-4.71,9.16,3
732185,-1.0,-0.02,0.12,-1.51,1.35,0.33,-21.23,-4.71,9.16,3
732197,-1.0,-0.02,0.12,-0.32,1.52,0.21,-21.23,-4.71,9.16,3
732209,-1.0,-0.02,0.12,0.13,1.33,0.21,-21.23,-4.71,9.16,3
732221,-1.0,-0.02,0.12,0.77,1.24,0.12,-21.28,-4.72,8.98,3
732231,-1.0,-0.02,0.12,0.98,1.26,0.08,-21.28,-4.72,8.98,3
732242,-1.0,-0.02,0.12,1.15,1.31,0.08,-21.28,-4.72,8.98,3
732252,-1.0,-0.02,0.12,1.31,1.52,0.06,-21.28,-4.72,8.98,3
732262,-1.0,-0.02,0.12,1.4,1.95,0.07,-21.28,-4.72,8.98,3
732275,-1.0,-0.02,0.12,1.55,2.57,0.1,-21.27,-4.69,8.62,3
732285,-1.0,-0.02,0.12,1.59,2.57,0.08,-21.27,-4.69,8.62,3
732296,-1.0,-0.02,0.13,1.6,2.23,0.09,-21.27,-4.69,8.62,3
732308,-1.0,-0.02,0.13,1.68,0.73,0.09,-21.27,-4.69,8.62,3
732319,-1.0,-0.02,0.13,1.74,-0.27,0.07,-21.2,-4.69,8.69,3
732330,-1.0,-0.02,0.13,1.76,-1.3,0.05,-21.2,-4.69,8.69,3
732343,-1.0,-0.02,0.12,1.79,-2.52,0.01,-21.2,-4.69,8.69,3
732355,-1.0,-0.02,0.12,1.83,-2.69,0.02,-21.2,-4.69,8.69,3
732368,-1.0,-0.02,0.12,1.9,-2.19,0.01,-21.36,-4.69,8.68,3
732380,-1.0,-0.02,0.12,1.91,-1.65,0.01,-21.36,-4.69,8.68,3
732393,-1.0,-0.02,0.12,1.83,-0.41,-0.01,-21.36,-4.69,8.68,3
732404,-1.0,-0.02,0.12,1.79,-0.21,-0.01,-21.36,-4.69,8.68,3
732415,-1.0,-0.02,0.13,1.8,-0.32,-0.02,-21.33,-4.59,8.64,3
732429,-1.0,-0.02,0.13,1.85,-1.41,0.02,-21.33,-4.59,8.64,3
732441,-1.0,-0.02,0.12,1.82,-1.94,0.01,-21.33,-4.59,8.64,3
732455,-1.0,-0.02,0.12,1.85,-2.21,0.01,-21.33,-4.59,8.64,3
732466,-1.0,-0.01,0.1,1.91,-1.99,0.01,-21.38,-4.57,8.54,3
732479,-1.0,-0.01,0.1,5.05,-1.63,-0.33,-21.38,-4.57,8.54,3
732490,-1.0,-0.02,0.12,4.85,-0.77,-0.35,-21.38,-4.57,8.54,3
732502,-1.0,-0.02,0.12,4.27,-0.52,-0.26,-21.38,-4.57,8.54,3
732513,-1.0,-0.01,0.12,5.12,1.36,-0.33,-21.38,-4.57,8.54,3
732524,-1.01,-0.01,0.12,6.25,3.51,-0.53,-21.3,-4.56,8.62,3
732536,-1.01,-0.01,0.12,7.08,5.28,-0.73,-21.3,-4.56,8.62,3
732547,-1.0,-0.01,0.12,7.11,6.74,-0.77,-21.3,-4.56,8.62,3
732558,-1.0,-0.02,0.13,6.04,5.44,-0.61,-21.3,-4.56,8.62,3
732569,-1.0,-0.02,0.14,5.12,3.69,-0.49,-21.32,-4.58,8.5,3
732580,-1.0,-0.02,0.14,4.41,1.98,-0.35,-21.32,-4.58,8.5,3
732592,-1.0,-0.02,0.13,3.4,-0.55,-0.24,-21.32,-4.58,8.5,3
732604,-1.0,-0.02,0.13,3.02,-1.29,-0.19,-21.32,-4.58,8.5,3
732615,-1.0,-0.02,0.13,2.75,-1.83,-0.12,-21.38,-4.7,8.41,3
732626,-1.0,-0.02,0.13,2.55,-2.3,-0.08,-21.38,-4.7,8.41,3
732638,-1.0,-0.02,0.12,2.39,-2.28,-0.07,-21.38,-4.7,8.41,3
732652,-1.0,-0.02,0.12,2.12,-0.95,-0.01,-21.38,-4.7,8.41,3
732665,-1.0,-0.02,0.12,2.03,0.04,0.01,-21.39,-4.76,8.02,3
732675,-1.01,-0.01,0.12,2.1,0.96,0.03,-21.39,-4.76,8.02,3
732687,-1.0,-0.01,0.12,5.42,5.94,-0.44,-21.39,-4.76,8.02,3
732697,-1.0,-0.02,0.13,6.85,7.27,-0.66,-21.39,-4.76,8.02,3
732708,-0.99,-0.02,0.14,7.02,6.55,-0.67,-21.39,-4.76,8.02,3
732722,-0.99,-0.02,0.14,6.12,4.7,-0.57,-21.46,-4.72,7.9,3
732732,-0.99,-0.02,0.14,5.78,3.67,-0.54,-21.46,-4.72,7.9,3
732744,-1.0,-0.02,0.14,4.31,1.52,-0.35,-21.46,-4.72,7.9,3
732756,-1.0,-0.01,0.12,4.17,1.16,-0.34,-21.46,-4.72,7.9,3
732767,-1.0,-0.02,0.13,5.39,0.18,-0.54,-21.46,-4.82,7.67,3
732780,-1.0,-0.02,0.15,5.5,0.76,-0.59,-21.46,-4.82,7.67,3
732791,-1.0,-0.02,0.15,4.68,0.99,-0.43,-21.46,-4.82,7.67,3
732802,-1.0,-0.02,0.14,4.01,1.08,-0.34,-21.46,-4.82,7.67,3
732816,-1.0,-0.02,0.15,3.11,0.8,-0.21,-21.5,-4.86,7.42,3
732826,-1.0,-0.02,0.14,2.83,0.42,-0.17,-21.5,-4.86,7.42,3
732837,-1.0,-0.02,0.14,2.57,0.38,-0.16,-21.5,-4.86,7.42,3
732849,-1.0,-0.02,0.14,2.29,0.6,-0.09,-21.5,-4.86,7.42,3
732860,-1.0,-0.02,0.14,2.19,0.58,-0.1,-21.5,-4.86,7.42,3
732871,-1.0,-0.02,0.15,2.1,0.34,-0.09,-21.42,-4.97,7.35,3
732882,-1.0,-0.02,0.15,1.99,-0.82,-0.06,-21.42,-4.97,7.35,3
732893,-1.0,-0.02,0.14,1.96,-1.42,-0.06,-21.42,-4.97,7.35,3
732905,-1.0,-0.02,0.14,1.88,-1.89,-0.04,-21.42,-4.97,7.35,3
732918,-1.0,-0.02,0.14,1.8,-2.0,-0.03,-21.42,-4.95,7.31,3
732930,-1.0,-0.02,0.14,1.78,-1.34,-0.01,-21.42,-4.95,7.31,3
732944,-1.0,-0.02,0.14,1.75,0.46,-0.0,-21.42,-4.95,7.31,3
732956,-1.0,-0.02,0.14,1.75,1.2,0.01,-21.42,-4.95,7.31,3
732968,-1.0,-0.02,0.14,1.72,1.95,0.03,-21.39,-4.92,7.34,3
732979,-1.0,-0.02,0.15,1.7,1.98,0.03,-21.39,-4.92,7.34,3
732991,-1.0,-0.02,0.15,1.68,1.78,-0.01,-21.39,-4.92,7.34,3
733001,-1.0,-0.02,0.15,1.67,1.51,0.02,-21.39,-4.92,7.34,3
733014,-1.0,-0.02,0.14,1.67,1.24,0.07,-21.33,-4.96,7.3,3
733024,-1.0,-0.02,0.14,1.69,1.38,0.08,-21.33,-4.96,7.3,3
733034,-1.0,-0.02,0.14,1.72,1.59,0.08,-21.33,-4.96,7.3,3
733047,-1.0,-0.02,0.15,1.77,1.96,0.05,-21.33,-4.96,7.3,3
733059,-1.0,-0.02,0.15,1.78,2.2,0.05,-21.33,-4.96,7.3,3
733072,-1.0,-0.02,0.15,1.76,2.96,0.07,-21.37,-4.98,7.42,3
733084,-1.0,-0.02,0.15,1.75,3.22,0.07,-21.37,-4.98,7.42,3
733097,-1.0,-0.02,0.15,1.72,3.01,0.03,-21.37,-4.98,7.42,3
733108,-1.0,-0.02,0.15,1.72,2.85,0.01,-21.37,-4.98,7.42,3
733119,-1.0,-0.02,0.15,1.73,2.87,-0.02,-21.38,-4.95,7.41,3
733132,-1.0,-0.02,0.15,1.8,3.39,-0.05,-21.38,-4.95,7.41,3
733144,-1.0,-0.02,0.16,1.81,3.48,-0.03,-21.38,-4.95,7.41,3
733157,-0.99,-0.02,0.16,1.8,3.0,-0.0,-21.38,-4.95,7.41,3
733169,-0.99,-0.02,0.16,1.84,2.47,0.01,-21.43,-4.94,7.46,3
733181,-0.99,-0.02,0.16,1.85,1.97,0.01,-21.43,-4.94,7.46,3
733193,-1.0,-0.02,0.16,1.79,1.71,-0.01,-21.43,-4.94,7.46,3
733205,-0.99,-0.02,0.16,1.77,1.69,0.0,-21.43,-4.94,7.46,3
733216,-0.99,-0.02,0.16,1.76,1.5,0.0,-21.44,-4.9,7.24,3
733228,-0.99,-0.02,0.17,1.73,0.41,0.0,-21.44,-4.9,7.24,3
733238,-0.99,-0.02,0.17,1.71,-0.53,-0.03,-21.44,-4.9,7.24,3
733249,-0.99,-0.02,0.17,1.71,-1.66,0.01,-21.44,-4.9,7.24,3
733262,-0.99,-0.02,0.16,1.68,-3.46,-0.02,-21.44,-4.9,7.24,3
733273,-1.0,-0.02,0.16,1.7,-3.87,-0.04,-21.43,-4.95,7.39,3
733286,-1.0,-0.02,0.16,1.75,-3.45,-0.0,-21.43,-4.95,7.39,3
733298,-1.0,-0.02,0.16,1.78,-3.08,0.03,-21.43,-4.95,7.39,3
733310,-1.0,-0.02,0.16,1.78,-2.78,0.05,-21.43,-4.95,7.39,3
733323,-1.0,-0.02,0.16,1.75,-2.53,0.05,-21.34,-4.93,7.36,3
733333,-1.0,-0.02,0.16,1.77,-2.53,0.07,-21.34,-4.93,7.36,3
733343,-0.99,-0.02,0.16,1.8,-2.56,0.05,-21.34,-4.93,7.36,3
733353,-1.0,-0.02,0.16,1.82,-2.64,0.05,-21.34,-4.93,7.36,3
733366,-1.0,-0.02,0.15,1.8,-2.48,0.04,-21.35,-4.9,7.28,3
733378,-1.0,-0.02,0.15,1.78,-2.31,0.05,-21.35,-4.9,7.28,3
733389,-1.0,-0.02,0.15,1.71,-1.86,0.01,-21.35,-4.9,7.28,3
733400,-1.0,-0.02,0.16,1.7,-1.72,0.03,-21.35,-4.9,7.28,3
733412,-1.0,-0.02,0.16,1.72,-1.69,0.03,-21.35,-4.9,7.28,3
733425,-0.99,-0.02,0.16,1.75,-2.37,0.04,-21.34,-4.87,7.1,3
733437,-0.99,-0.02,0.16,1.75,-3.1,0.03,-21.34,-4.87,7.1,3
733450,-0.99,-0.02,0.16,1.75,-4.94,0.05,-21.34,-4.87,7.1,3
733461,-0.99,-0.02,0.16,1.75,-5.81,0.03,-21.34,-4.87,7.1,3
733472,-0.99,-0.01,0.16,1.8,-6.58,0.04,-21.38,-4.89,7.17,3
733483,-0.99,-0.01,0.15,1.68,-7.88,0.04,-21.38,-4.89,7.17,3
733494,-1.0,-0.02,0.15,1.63,-8.6,0.05,-21.38,-4.89,7.17,3
733506,-1.0,-0.02,0.15,1.55,-9.28,0.06,-21.38,-4.89,7.17,3
733519,-1.0,-0.02,0.14,1.6,-9.78,0.05,-21.27,-4.87,7.24,3
733531,-1.0,-0.02,0.13,1.61,-9.18,0.03,-21.27,-4.87,7.24,3
733545,-1.0,-0.02,0.13,1.64,-6.75,0.02,-21.27,-4.87,7.24,3
733556,-1.0,-0.02,0.13,1.7,-5.31,0.0,-21.27,-4.87,7.24,3
733568,-1.0,-0.02,0.13,1.7,-4.0,-0.01,-21.22,-4.95,7.2,3
733580,-1.0,-0.02,0.14,1.68,-2.48,-0.01,-21.22,-4.95,7.2,3
733592,-1.0,-0.02,0.14,1.71,-2.29,-0.01,-21.22,-4.95,7.2,3
733606,-1.0,-0.02,0.14,1.71,-2.47,-0.0,-21.22,-4.95,7.2,3
733617,-1.0,-0.02,0.14,1.71,-2.53,0.01,-21.29,-4.9,7.44,3
733631,-1.0,-0.01,0.14,1.71,-2.75,0.02,-21.29,-4.9,7.44,3
733642,-1.0,-0.02,0.14,1.55,-2.84,0.04,-21.29,-4.9,7.44,3
733653,-1.0,-0.02,0.14,1.56,-2.96,0.02,-21.29,-4.9,7.44,3
733665,-1.0,-0.02,0.13,1.67,-3.12,0.03,-21.41,-4.89,7.43,3
733677,-1.0,-0.02,0.13,1.67,-3.04,0.03,-21.41,-4.89,7.43,3
733687,-1.0,-0.02,0.13,1.61,-2.77,-0.01,-21.41,-4.89,7.43,3
733698,-1.0,-0.02,0.13,1.6,-2.42,-0.02,-21.41,-4.89,7.43,3
733709,-1.0,-0.02,0.13,1.65,-2.4,-0.0,-21.41,-4.89,7.43,3
733720,-1.0,-0.02,0.13,1.67,-2.41,0.01,-21.32,-4.82,7.6,3
733731,-1.0,-0.02,0.13,1.69,-2.37,0.01,-21.32,-4.82,7.6,3
733743,-1.0,-0.02,0.13,1.65,-2.21,-0.08,-21.32,-4.82,7.6,3
733754,-1.0,-0.02,0.13,1.72,-1.65,-0.08,-21.32,-4.82,7.6,3
733768,-1.0,-0.02,0.12,1.76,0.18,0.01,-21.44,-4.78,7.5,3
733780,-1.0,-0.02,0.13,1.74,1.34,0.02,-21.44,-4.78,7.5,3
733790,-1.0,-0.02,0.13,1.7,2.36,0.0,-21.44,-4.78,7.5,3
733801,-1.0,-0.02,0.13,1.71,3.16,-0.02,-21.44,-4.78,7.5,3
733813,-1.0,-0.02,0.14,1.7,2.84,-0.0,-21.42,-4.76,7.38,3
733825,-1.0,-0.02,0.14,1.7,2.27,-0.0,-21.42,-4.76,7.38,3
733837,-0.99,-0.02,0.15,0.12,-0.67,0.26,-21.42,-4.76,7.38,3
733849,-0.99,-0.02,0.14,-0.94,-3.24,0.39,-21.42,-4.76,7.38,3
733864,-1.0,-0.02,0.14,0.07,-4.22,0.24,-21.37,-4.81,7.48,3
733874,-1.0,-0.02,0.13,0.46,-4.44,0.2,-21.37,-4.81,7.48,3
733884,-1.0,-0.02,0.13,0.74,-4.17,0.17,-21.37,-4.81,7.48,3
733894,-1.0,-0.02,0.14,0.72,-3.49,0.15,-21.37,-4.81,7.48,3
733906,-1.0,-0.01,0.13,-0.91,-2.14,0.39,-21.37,-4.81,7.48,3
733917,-1.0,-0.01,0.12,-1.13,-1.93,0.44,-21.36,-4.75,7.4,3
733930,-1.0,-0.01,0.12,-0.3,-1.02,0.33,-21.36,-4.75,7.4,3
733941,-1.0,-0.01,0.13,0.16,-0.47,0.28,-21.36,-4.75,7.4,3
733953,-1.0,-0.01,0.13,0.51,-0.3,0.23,-21.36,-4.75,7.4,3
733966,-1.0,-0.02,0.14,0.91,-0.96,0.13,-21.4,-4.91,7.46,3
733977,-1.0,-0.02,0.14,0.65,-1.44,0.18,-21.4,-4.91,7.46,3
733988,-1.0,-0.02,0.14,0.24,-2.05,0.21,-21.4,-4.91,7.46,3
734000,-1.0,-0.02,0.14,-1.77,-1.6,0.55,-21.4,-4.91,7.46,3
734013,-1.0,-0.02,0.14,-2.44,-1.47,0.65,-21.3,-4.91,7.49,3
734026,-1.0,-0.02,0.13,-3.16,-1.46,0.71,-21.3,-4.91,7.49,3
734037,-1.0,-0.02,0.13,-2.68,-2.3,0.62,-21.3,-4.91,7.49,3
734049,-0.99,-0.02,0.13,-3.0,-4.16,0.7,-21.3,-4.91,7.49,3
734061,-1.0,-0.02,0.12,-4.91,-8.33,0.92,-21.3,-4.91,7.49,3
734072,-1.01,-0.02,0.11,-4.27,-7.6,0.87,-21.24,-4.85,7.69,3
734086,-1.01,-0.02,0.11,-2.42,-3.8,0.59,-21.24,-4.85,7.69,3
734098,-1.0,-0.02,0.12,-1.55,-1.68,0.48,-21.24,-4.85,7.69,3
734113,-1.0,-0.02,0.13,-0.2,0.12,0.32,-21.17,-4.8,7.64,3
734124,-1.0,-0.02,0.13,0.25,-0.26,0.26,-21.17,-4.8,7.64,3
734136,-1.0,-0.02,0.13,0.84,-0.98,0.12,-21.17,-4.8,7.64,3
734147,-1.0,-0.02,0.13,1.03,-1.01,0.09,-21.17,-4.8,7.64,3
734159,-1.0,-0.02,0.13,1.15,-0.88,0.1,-21.17,-4.8,7.64,3
734172,-1.0,-0.02,0.13,1.36,-1.16,0.06,-21.06,-4.85,7.98,3
734183,-1.0,-0.02,0.13,1.42,-1.59,0.02,-21.06,-4.85,7.98,3
734194,-1.0,-0.02,0.13,1.46,-2.09,-0.03,-21.06,-4.85,7.98,3
734206,-1.0,-0.02,0.12,1.57,-2.3,0.02,-21.06,-4.85,7.98,3
734217,-1.0,-0.02,0.12,1.6,-1.83,0.02,-20.97,-4.76,8.03,3
734229,-1.0,-0.02,0.12,1.62,-1.08,0.01,-20.97,-4.76,8.03,3
734241,-1.0,-0.02,0.12,1.61,0.54,-0.01,-20.97,-4.76,8.03,3
734253,-1.0,-0.02,0.13,1.63,0.96,-0.01,-20.97,-4.76,8.03,3
734266,-1.0,-0.02,0.13,1.45,0.79,0.08,-21.07,-4.68,8.17,3
734278,-1.0,-0.02,0.14,1.31,0.66,0.11,-21.07,-4.68,8.17,3
734288,-1.0,-0.02,0.14,0.37,0.54,0.21,-21.07,-4.68,8.17,3
734299,-1.0,-0.02,0.14,-2.7,1.32,0.67,-21.07,-4.68,8.17,3
734310,-1.0,-0.02,0.14,-3.85,1.67,0.89,-21.07,-4.68,8.17,3
734321,-1.0,-0.02,0.13,-4.27,1.32,0.92,-21.11,-4.74,8.15,3
734335,-1.0,-0.02,0.13,-3.78,0.45,0.82,-21.11,-4.74,8.15,3
734347,-1.0,-0.02,0.13,-3.19,-0.17,0.74,-21.11,-4.74,8.15,3
734361,-1.0,-0.01,0.13,-1.95,-1.26,0.59,-21.13,-4.71,8.32,3
734373,-1.0,-0.01,0.13,-1.17,-1.74,0.47,-21.13,-4.71,8.32,3
734387,-1.0,-0.02,0.14,-0.9,-1.79,0.33,-21.13,-4.71,8.32,3
734399,-1.0,-0.01,0.13,-1.45,-2.06,0.41,-21.13,-4.71,8.32,3
734414,-1.0,-0.01,0.13,-1.15,-3.23,0.39,-21.21,-4.66,8.36,3
734426,-1.0,-0.01,0.13,-0.6,-3.15,0.34,-21.21,-4.66,8.36,3
734438,-1.0,-0.02,0.13,-0.35,-2.54,0.31,-21.21,-4.66,8.36,3
734450,-1.0,-0.02,0.13,-1.5,-2.43,0.5,-21.21,-4.66,8.36,3
734465,-1.01,-0.02,0.13,-4.59,-2.75,0.85,-21.32,-4.73,8.67,3
734477,-1.01,-0.02,0.13,-4.51,-2.3,0.86,-21.32,-4.73,8.67,3
734488,-1.01,-0.02,0.13,-3.38,-0.46,0.61,-21.32,-4.73,8.67,3
734499,-1.0,-0.02,0.13,-2.92,0.57,0.58,-21.32,-4.73,8.67,3
734512,-1.0,-0.02,0.13,-2.44,0.9,0.53,-21.38,-4.63,8.46,3
734524,-1.0,-0.02,0.14,-2.18,-0.04,0.59,-21.38,-4.63,8.46,3
734536,-1.0,-0.02,0.13,-1.9,-1.2,0.53,-21.38,-4.63,8.46,3
734550,-1.0,-0.01,0.13,-1.48,-2.55,0.47,-21.38,-4.63,8.46,3
734561,-1.0,-0.01,0.12,-1.17,-2.77,0.46,-21.36,-4.62,8.39,3
734574,-1.0,-0.01,0.12,-0.14,-2.24,0.3,-21.36,-4.62,8.39,3
734586,-1.0,-0.01,0.12,0.25,-1.81,0.25,-21.36,-4.62,8.39,3
734598,-1.0,-0.01,0.12,0.56,-1.66,0.22,-21.36,-4.62,8.39,3
734610,-1.0,-0.02,0.12,1.07,-1.47,0.16,-21.36,-4.62,8.39,3
734621,-1.0,-0.02,0.12,1.21,-1.38,0.13,-21.53,-4.64,8.35,3
734634,-1.0,-0.02,0.12,1.35,-0.59,0.06,-21.53,-4.64,8.35,3
734645,-1.0,-0.02,0.13,1.39,-0.19,0.05,-21.53,-4.64,8.35,3
734657,-1.0,-0.02,0.13,1.35,0.05,0.05,-21.53,-4.64,8.35,3
734670,-1.0,-0.02,0.13,1.01,-0.06,0.09,-21.59,-4.55,8.44,3
734682,-1.0,-0.01,0.13,1.11,-0.58,0.07,-21.59,-4.55,8.44,3
734696,-1.0,-0.02,0.13,1.38,-1.3,0.05,-21.59,-4.55,8.44,3
734707,-1.0,-0.02,0.13,1.47,-1.43,0.06,-21.59,-4.55,8.44,3
734720,-1.0,-0.02,0.13,1.6,-1.12,0.05,-21.64,-4.47,8.43,3
734731,-1.0,-0.02,0.13,1.64,-1.01,0.04,-21.64,-4.47,8.43,3
734743,-1.0,-0.02,0.13,1.65,-0.96,0.03,-21.64,-4.47,8.43,3
734753,-1.0,-0.02,0.13,1.71,-0.96,0.02,-21.64,-4.47,8.43,3
734766,-1.0,-0.02,0.13,1.8,-1.53,0.02,-21.63,-4.39,8.52,3
734777,-1.0,-0.02,0.13,1.81,-1.92,0.0,-21.63,-4.39,8.52,3
734788,-1.0,-0.02,0.13,1.75,-2.63,0.0,-21.63,-4.39,8.52,3
734800,-1.0,-0.02,0.12,1.77,-2.59,0.0,-21.63,-4.39,8.52,3
734811,-1.0,-0.02,0.12,1.79,-2.14,0.02,-21.67,-4.47,8.76,3
734825,-1.0,-0.02,0.12,1.79,-0.99,0.07,-21.67,-4.47,8.76,3
734836,-1.0,-0.02,0.13,1.76,-0.54,0.07,-21.67,-4.47,8.76,3
734847,-1.0,-0.02,0.13,1.79,-0.3,0.11,-21.67,-4.47,8.76,3
734859,-1.0,-0.02,0.13,1.78,-0.13,0.11,-21.67,-4.47,8.76,3
734870,-1.0,-0.02,0.13,1.77,-0.09,0.08,-21.53,-4.41,8.67,3
734882,-1.0,-0.02,0.13,1.75,-0.04,0.07,-21.53,-4.41,8.67,3
734894,-1.0,-0.02,0.13,1.72,-0.22,0.03,-21.53,-4.41,8.67,3
734905,-1.0,-0.02,0.13,1.73,-0.39,0.01,-21.53,-4.41,8.67,3
734917,-1.0,-0.02,0.13,1.77,-0.44,0.01,-21.55,-4.41,8.63,3
734929,-1.0,-0.02,0.13,1.77,-0.4,0.01,-21.55,-4.41,8.63,3
734940,-1.0,-0.02,0.13,1.62,-0.32,0.03,-21.55,-4.41,8.63,3
734952,-1.0,-0.02,0.13,0.71,-0.21,0.15,-21.55,-4.41,8.63,3
734964,-1.0,-0.02,0.13,0.09,-0.11,0.2,-21.48,-4.35,8.64,3
734976,-1.0,-0.02,0.13,-0.43,-0.1,0.19,-21.48,-4.35,8.64,3
734988,-1.0,-0.01,0.13,-0.85,-0.23,0.26,-21.48,-4.35,8.64,3
735000,-1.0,-0.01,0.13,-0.77,-0.31,0.33,-21.48,-4.35,8.64,3
735011,-1.0,-0.02,0.13,-0.72,-0.41,0.38,-21.42,-4.42,8.47,3
735022,-1.0,-0.02,0.13,-0.99,-0.3,0.43,-21.42,-4.42,8.47,3
735034,-1.0,-0.01,0.13,-1.29,-0.3,0.43,-21.42,-4.42,8.47,3
735048,-1.0,-0.01,0.13,-2.71,-1.65,0.65,-21.42,-4.42,8.47,3
735061,-1.0,-0.01,0.13,-3.41,-3.05,0.68,-21.46,-4.44,8.44,3
735072,-1.0,-0.01,0.13,-2.12,-2.12,0.52,-21.46,-4.44,8.44,3
735084,-1.0,-0.02,0.13,-1.53,-1.78,0.44,-21.46,-4.44,8.44,3
735096,-1.0,-0.02,0.13,-1.1,-1.19,0.41,-21.46,-4.44,8.44,3
735108,-1.0,-0.02,0.13,-0.88,-0.36,0.4,-21.46,-4.44,8.44,3
735119,-1.0,-0.02,0.13,-1.25,-1.13,0.4,-21.55,-4.42,8.6,3
735130,-1.0,-0.02,0.14,-1.71,-2.16,0.45,-21.55,-4.42,8.6,3
735141,-1.0,-0.02,0.14,-2.37,-2.97,0.6,-21.55,-4.42,8.6,3
735152,-1.0,-0.01,0.13,-2.37,-2.88,0.62,-21.55,-4.42,8.6,3
735163,-1.0,-0.02,0.13,-2.38,-2.31,0.63,-21.54,-4.49,8.66,3
735177,-1.0,-0.02,0.13,-3.12,-2.73,0.71,-21.54,-4.49,8.66,3
735189,-1.0,-0.02,0.13,-3.44,-3.25,0.73,-21.54,-4.49,8.66,3
735203,-1.0,-0.02,0.13,-3.69,-3.89,0.78,-21.54,-4.49,8.66,3
735214,-1.0,-0.02,0.12,-4.22,-4.7,0.82,-21.51,-4.47,8.61,3
735228,-1.01,-0.02,0.12,-3.48,-4.19,0.43,-21.51,-4.47,8.61,3
735240,-1.0,-0.02,0.12,-2.94,-3.52,0.12,-21.51,-4.47,8.61,3
735254,-1.0,-0.01,0.12,-2.63,-2.36,-0.11,-21.51,-4.47,8.61,3
735265,-1.0,-0.01,0.12,-2.82,-1.89,-0.07,-21.52,-4.41,8.46,3
735276,-1.0,-0.01,0.12,-3.24,-2.07,-0.0,-21.52,-4.41,8.46,3
735288,-1.0,-0.02,0.12,-3.62,-2.31,0.18,-21.52,-4.41,8.46,3
735300,-1.01,-0.01,0.12,-4.06,-2.8,0.26,-21.52,-4.41,8.46,3
735311,-1.01,-0.01,0.12,-3.91,-2.61,0.03,-21.42,-4.38,8.5,3
735322,-1.0,-0.01,0.12,-3.53,-1.9,-0.26,-21.42,-4.38,8.5,3
735334,-1.0,-0.01,0.12,-3.26,-1.36,-0.46,-21.42,-4.38,8.5,3
735349,-1.0,-0.01,0.12,-2.75,-0.36,-0.22,-21.42,-4.38,8.5,3
735360,-1.0,-0.01,0.12,-2.29,-0.33,-0.13,-21.45,-4.47,8.51,3
735374,-1.0,-0.01,0.12,-1.18,-0.6,-0.17,-21.45,-4.47,8.51,3
735386,-1.0,-0.01,0.12,-0.69,-0.85,-0.21,-21.45,-4.47,8.51,3
735400,-1.0,-0.01,0.12,0.18,-1.55,-0.2,-21.45,-4.47,8.51,3
735411,-1.0,-0.01,0.12,0.45,-1.72,-0.14,-21.46,-4.49,8.45,3
735424,-1.0,-0.01,0.12,0.72,-0.98,0.28,-21.46,-4.49,8.45,3
735435,-1.0,-0.01,0.12,0.69,-0.27,0.59,-21.46,-4.49,8.45,3
735447,-1.0,-0.01,0.12,0.67,0.48,0.93,-21.46,-4.49,8.45,3
735462,-1.0,-0.01,0.12,0.72,1.76,1.38,-21.61,-4.48,8.45,3
735472,-1.0,-0.02,0.12,0.77,1.99,1.45,-21.61,-4.48,8.45,3
735485,-0.99,-0.02,0.13,0.62,0.91,1.51,-21.61,-4.48,8.45,3
735497,-1.0,-0.02,0.13,-0.04,-1.37,1.49,-21.61,-4.48,8.45,3
735511,-1.0,-0.02,0.13,0.33,-4.43,0.77,-21.64,-4.43,8.65,3
735523,-1.01,-0.02,0.12,1.39,-4.71,0.09,-21.64,-4.43,8.65,3
735533,-1.01,-0.02,0.12,2.31,-4.76,-0.53,-21.64,-4.43,8.65,3
735547,-1.0,-0.01,0.12,3.07,-3.29,-1.01,-21.64,-4.43,8.65,3
735558,-1.0,-0.01,0.13,3.17,-2.94,-0.97,-21.64,-4.43,8.65,3
735572,-1.0,-0.01,0.12,3.34,-3.29,-0.95,-21.62,-4.41,8.91,3
