time,acc_x,acc_y,acc_z,gyro_x,gyro_y,gyro_z,mag_x,mag_y,mag_z,label
1153445,0.99,-0.02,0.07,1.61,0.54,0.03,48.24,-7.53,-5.74,3
1153456,0.99,-0.02,0.07,1.61,-0.33,0.04,48.24,-7.53,-5.74,3
1153469,0.99,-0.02,0.07,1.61,-2.41,0.0,48.24,-7.53,-5.74,3
1153480,0.98,-0.02,0.08,1.64,-2.89,0.0,48.24,-7.53,-5.74,3
1153491,0.98,-0.02,0.08,1.64,-2.63,0.0,48.28,-7.63,-5.9,3
1153505,0.98,-0.02,0.07,1.57,-0.9,0.0,48.28,-7.63,-5.9,3
1153515,0.99,-0.02,0.07,1.59,-0.72,0.03,48.28,-7.63,-5.9,3
1153526,0.99,-0.02,0.07,1.63,-0.99,0.01,48.28,-7.63,-5.9,3
1153538,0.99,-0.02,0.07,1.67,-1.41,0.01,48.22,-7.58,-5.85,3
1153550,0.98,-0.02,0.07,1.69,-1.31,0.0,48.22,-7.58,-5.85,3
1153562,0.98,-0.02,0.07,1.65,-0.91,0.02,48.22,-7.58,-5.85,3
1153574,0.98,-0.02,0.07,1.61,-0.37,0.04,48.22,-7.58,-5.85,3
1153586,0.99,-0.02,0.07,1.64,-0.63,0.05,48.22,-7.58,-5.85,3
1153598,0.99,-0.02,0.07,1.65,-1.16,0.06,48.14,-7.63,-5.86,3
1153609,0.99,-0.02,0.07,1.61,-1.16,0.04,48.14,-7.63,-5.86,3
1153621,0.98,-0.02,0.08,1.62,-1.09,0.04,48.14,-7.63,-5.86,3
1153631,0.98,-0.02,0.07,1.6,-0.83,0.03,48.14,-7.63,-5.86,3
1153644,0.98,-0.02,0.07,1.59,-0.15,0.02,48.12,-7.63,-5.79,3
1153654,0.99,-0.02,0.07,1.6,-0.33,0.02,48.12,-7.63,-5.79,3
1153666,0.99,-0.02,0.07,1.59,-1.23,-0.0,48.12,-7.63,-5.79,3
1153678,0.99,-0.02,0.07,1.6,-1.58,0.01,48.12,-7.63,-5.79,3
1153689,0.99,-0.02,0.07,1.61,-1.66,0.04,48.25,-7.66,-5.8,3
1153699,0.98,-0.02,0.08,1.61,-1.43,0.06,48.25,-7.66,-5.8,3
1153711,0.98,-0.02,0.07,1.62,-0.6,0.05,48.25,-7.66,-5.8,3
1153723,0.98,-0.02,0.07,1.63,-0.43,0.02,48.25,-7.66,-5.8,3
1153737,0.99,-0.02,0.07,1.58,-0.38,0.01,48.35,-7.7,-5.61,3
1153749,0.99,-0.02,0.07,1.62,-0.55,0.01,48.35,-7.7,-5.61,3
1153763,0.99,-0.02,0.07,1.63,-0.71,-0.01,48.35,-7.7,-5.61,3
1153775,0.99,-0.02,0.07,1.61,-0.61,0.05,48.35,-7.7,-5.61,3
1153785,0.99,-0.02,0.07,1.6,-0.46,0.07,48.35,-7.7,-5.61,3
1153798,0.98,-0.02,0.07,1.61,-0.4,0.1,48.41,-7.63,-5.61,3
1153809,0.98,-0.02,0.07,1.57,-0.62,0.06,48.41,-7.63,-5.61,3
1153820,0.99,-0.02,0.07,1.58,-1.09,0.06,48.41,-7.63,-5.61,3
1153832,0.98,-0.02,0.07,1.61,-1.86,0.04,48.41,-7.63,-5.61,3
1153843,0.98,-0.02,0.07,1.62,-1.87,0.05,48.42,-7.65,-5.53,3
1153856,0.99,-0.02,0.08,1.57,-0.75,0.02,48.42,-7.65,-5.53,3
1153867,0.99,-0.02,0.07,1.56,-0.31,0.03,48.42,-7.65,-5.53,3
1153877,0.99,-0.02,0.07,1.59,-0.45,0.01,48.42,-7.65,-5.53,3
1153888,0.98,-0.02,0.07,1.59,-0.94,0.03,48.38,-7.77,-5.63,3
1153900,0.98,-0.02,0.07,1.61,-1.98,0.04,48.38,-7.77,-5.63,3
1153912,0.98,-0.02,0.07,1.63,-2.3,0.01,48.38,-7.77,-5.63,3
1153924,1.0,-0.02,0.08,1.66,-1.51,0.02,48.38,-7.77,-5.63,3
1153935,0.99,-0.02,0.08,1.71,-0.84,-0.01,48.38,-7.77,-5.63,3
1153947,0.98,-0.02,0.07,1.7,-0.32,0.03,48.35,-7.87,-5.65,3
1153957,0.98,-0.02,0.07,1.67,-0.07,0.02,48.35,-7.87,-5.65,3
1153969,0.98,-0.02,0.07,1.68,-1.5,-0.04,48.35,-7.87,-5.65,3
1153980,0.99,-0.02,0.08,1.7,-2.03,-0.0,48.35,-7.87,-5.65,3
1153991,0.99,-0.02,0.08,1.7,-1.41,0.02,48.43,-7.81,-5.59,3
1154003,0.99,-0.02,0.07,1.65,0.27,0.07,48.43,-7.81,-5.59,3
1154015,0.99,-0.02,0.07,1.62,0.34,0.08,48.43,-7.81,-5.59,3
1154028,1.0,-0.02,0.06,1.65,-0.7,0.11,48.43,-7.81,-5.59,3
1154039,0.99,-0.02,0.07,1.68,-2.15,0.15,48.45,-7.81,-5.6,3
1154051,0.98,-0.02,0.08,1.69,-3.17,0.1,48.45,-7.81,-5.6,3
1154063,0.97,-0.02,0.08,1.62,-1.8,0.08,48.45,-7.81,-5.6,3
1154075,0.97,-0.02,0.08,1.63,-0.35,0.06,48.45,-7.81,-5.6,3
1154089,0.98,-0.02,0.07,1.63,0.69,0.07,48.39,-7.74,-5.6,3
1154101,0.99,-0.02,0.07,1.65,0.0,0.06,48.39,-7.74,-5.6,3
1154115,0.99,-0.02,0.07,1.62,-1.75,0.07,48.39,-7.74,-5.6,3
1154125,0.98,-0.02,0.08,1.65,-2.09,0.1,48.39,-7.74,-5.6,3
1154137,0.98,-0.02,0.08,1.64,-1.7,0.09,48.36,-7.75,-5.38,3
1154149,0.98,-0.02,0.07,1.6,-0.03,0.02,48.36,-7.75,-5.38,3
1154161,0.99,-0.02,0.06,1.57,-0.55,-0.05,48.36,-7.75,-5.38,3
1154175,0.99,-0.02,0.07,1.64,-2.84,-0.03,48.36,-7.75,-5.38,3
1154188,0.98,-0.02,0.08,1.67,-2.94,0.0,48.39,-7.78,-5.37,3
1154199,0.98,-0.02,0.08,1.68,-1.97,0.01,48.39,-7.78,-5.37,3
1154210,0.99,-0.02,0.07,1.65,-1.55,-0.03,48.39,-7.78,-5.37,3
1154222,0.99,-0.02,0.07,1.65,-1.7,-0.04,48.39,-7.78,-5.37,3
1154233,0.99,-0.02,0.07,1.64,-2.79,0.02,48.39,-7.78,-5.37,3
1154245,0.98,-0.02,0.08,1.61,-2.62,0.02,48.52,-7.77,-5.26,3
1154257,0.98,-0.02,0.08,1.62,-1.89,0.03,48.52,-7.77,-5.26,3
1154268,0.98,-0.02,0.08,1.61,-0.88,0.03,48.52,-7.77,-5.26,3
1154279,0.99,-0.02,0.07,1.65,-0.94,0.01,48.52,-7.77,-5.26,3
1154290,0.99,-0.02,0.07,1.66,-1.25,0.01,48.58,-7.83,-5.32,3
1154304,0.99,-0.02,0.08,1.66,-1.26,-0.01,48.58,-7.83,-5.32,3
1154315,0.98,-0.02,0.08,1.63,-0.87,0.01,48.58,-7.83,-5.32,3
1154329,0.98,-0.02,0.07,1.61,-0.86,-0.02,48.58,-7.83,-5.32,3
1154340,0.99,-0.02,0.07,1.58,-1.29,-0.03,48.57,-7.78,-5.4,3
1154352,0.99,-0.02,0.08,1.58,-1.62,-0.02,48.57,-7.78,-5.4,3
1154364,0.99,-0.02,0.08,1.54,-1.4,-0.03,48.57,-7.78,-5.4,3
1154376,0.98,-0.02,0.08,1.55,-0.86,-0.02,48.57,-7.78,-5.4,3
1154387,0.98,-0.02,0.07,1.56,-0.37,0.01,48.59,-7.79,-5.34,3
1154398,0.99,-0.02,0.07,1.55,-0.33,0.01,48.59,-7.79,-5.34,3
1154410,0.99,-0.02,0.07,1.53,-0.89,-0.04,48.59,-7.79,-5.34,3
1154424,0.99,-0.02,0.08,1.57,-0.95,0.02,48.59,-7.79,-5.34,3
1154436,0.98,-0.02,0.08,1.6,-0.34,0.03,48.57,-7.78,-5.21,3
1154448,0.98,-0.02,0.07,1.64,0.52,0.02,48.57,-7.78,-5.21,3
1154459,0.99,-0.02,0.07,1.64,0.13,-0.05,48.57,-7.78,-5.21,3
1154470,0.99,-0.02,0.07,1.66,-0.62,-0.06,48.57,-7.78,-5.21,3
1154481,0.99,-0.02,0.07,1.66,-1.21,-0.08,48.57,-7.78,-5.21,3
1154494,0.98,-0.02,0.08,1.61,-0.95,-0.06,48.56,-7.8,-5.27,3
1154506,0.98,-0.02,0.08,1.58,-0.35,-0.07,48.56,-7.8,-5.27,3
1154518,0.99,-0.02,0.07,1.57,-0.16,-0.09,48.56,-7.8,-5.27,3
1154530,0.99,-0.02,0.07,1.56,-0.97,-0.11,48.56,-7.8,-5.27,3
1154541,0.99,-0.02,0.07,1.57,-1.96,-0.09,48.46,-7.85,-5.44,3
1154553,0.98,-0.02,0.08,1.57,-2.18,-0.03,48.46,-7.85,-5.44,3
1154565,0.98,-0.02,0.08,1.58,-1.25,-0.04,48.46,-7.85,-5.44,3
1154579,0.99,-0.02,0.07,1.64,0.22,-0.02,48.46,-7.85,-5.44,3
1154590,0.99,-0.02,0.07,1.63,-0.05,-0.0,48.5,-7.97,-5.66,3
1154603,0.99,-0.02,0.07,1.65,-1.25,-0.01,48.5,-7.97,-5.66,3
1154614,0.99,-0.02,0.08,1.59,-1.3,-0.0,48.5,-7.97,-5.66,3
1154626,0.98,-0.02,0.08,1.57,-0.95,0.02,48.5,-7.97,-5.66,3
1154638,0.98,-0.02,0.07,1.61,-0.42,0.04,48.49,-8.01,-5.7,3
1154649,0.98,-0.02,0.07,1.62,-0.56,0.01,48.49,-8.01,-5.7,3
1154661,0.99,-0.02,0.07,1.59,-0.92,-0.02,48.49,-8.01,-5.7,3
1154673,0.98,-0.02,0.08,1.55,-1.14,-0.05,48.49,-8.01,-5.7,3
1154686,0.98,-0.02,0.08,1.53,-0.67,-0.03,48.38,-7.89,-5.7,3
1154697,0.98,-0.02,0.08,1.58,0.25,-0.05,48.38,-7.89,-5.7,3
1154708,0.99,-0.02,0.07,1.58,0.06,-0.06,48.38,-7.89,-5.7,3
1154720,0.99,-0.02,0.07,1.55,-0.51,-0.04,48.38,-7.89,-5.7,3
1154734,0.99,-0.02,0.07,1.55,-1.5,-0.04,48.38,-7.89,-5.7,3
1154745,0.98,-0.02,0.08,1.56,-1.4,-0.05,48.32,-7.74,-5.77,3
1154759,0.99,-0.02,0.07,1.52,-0.33,-0.11,48.32,-7.74,-5.77,3
1154769,0.99,-0.02,0.07,1.56,-0.11,-0.1,48.32,-7.74,-5.77,3
1154780,0.99,-0.02,0.07,1.57,-0.23,-0.07,48.32,-7.74,-5.77,3
1154794,0.99,-0.02,0.07,1.56,-0.94,-0.01,48.39,-7.62,-5.73,3
1154806,0.98,-0.02,0.07,1.54,-1.04,-0.02,48.39,-7.62,-5.73,3
1154816,0.98,-0.02,0.07,1.51,-0.85,-0.03,48.39,-7.62,-5.73,3
1154828,0.99,-0.02,0.07,1.57,-0.29,-0.02,48.39,-7.62,-5.73,3
1154839,0.99,-0.02,0.07,1.56,-0.19,-0.02,48.49,-7.61,-5.93,3
1154853,0.99,-0.02,0.07,1.54,-0.13,0.0,48.49,-7.61,-5.93,3
1154864,0.99,-0.02,0.07,1.57,-0.26,0.01,48.49,-7.61,-5.93,3
1154875,0.99,-0.02,0.07,1.57,-0.57,-0.0,48.49,-7.61,-5.93,3
1154887,0.99,-0.02,0.07,1.66,-1.36,-0.01,48.55,-7.6,-6.13,3
1154899,0.99,-0.02,0.07,1.66,-1.65,0.0,48.55,-7.6,-6.13,3
1154912,0.99,-0.02,0.07,1.61,-1.31,0.01,48.55,-7.6,-6.13,3
1154923,0.99,-0.02,0.07,1.56,-0.81,0.02,48.55,-7.6,-6.13,3
1154934,0.99,-0.02,0.07,1.54,-0.44,0.04,48.55,-7.6,-6.13,3
1154946,0.99,-0.02,0.07,1.55,-0.59,0.01,48.51,-7.6,-5.93,3
1154957,0.99,-0.02,0.07,1.53,-0.91,-0.0,48.51,-7.6,-5.93,3
1154969,0.99,-0.02,0.07,1.51,-1.25,-0.0,48.51,-7.6,-5.93,3
1154980,0.99,-0.02,0.07,1.54,-1.11,-0.02,48.51,-7.6,-5.93,3
1154992,0.99,-0.02,0.07,1.57,-0.71,0.01,48.45,-7.63,-5.94,3
1155004,0.98,-0.02,0.07,1.6,-0.38,0.06,48.45,-7.63,-5.94,3
1155016,0.99,-0.02,0.07,1.58,-0.34,0.08,48.45,-7.63,-5.94,3
1155028,0.99,-0.02,0.07,1.6,-0.67,0.06,48.45,-7.63,-5.94,3
1155039,0.98,-0.02,0.07,1.64,-0.83,0.05,48.4,-7.61,-5.8,3
1155051,0.98,-0.02,0.07,1.64,-0.26,0.05,48.4,-7.61,-5.8,3
1155063,0.98,-0.02,0.07,1.6,0.28,0.05,48.4,-7.61,-5.8,3
1155076,0.99,-0.02,0.07,1.6,0.42,0.04,48.4,-7.61,-5.8,3
1155087,0.99,-0.02,0.07,1.59,0.38,0.06,48.48,-7.63,-5.68,3
1155099,0.99,-0.02,0.07,1.62,0.37,0.09,48.48,-7.63,-5.68,3
1155111,0.99,-0.02,0.07,1.57,0.56,0.02,48.48,-7.63,-5.68,3
1155122,0.99,-0.02,0.07,1.55,0.65,0.01,48.48,-7.63,-5.68,3
1155136,0.99,-0.02,0.07,1.54,0.68,0.03,48.52,-7.68,-5.63,3
1155148,0.99,-0.02,0.07,1.55,0.63,0.05,48.52,-7.68,-5.63,3
1155160,0.99,-0.02,0.07,1.51,0.58,-0.02,48.52,-7.68,-5.63,3
1155171,0.99,-0.02,0.06,1.49,0.37,-0.03,48.52,-7.68,-5.63,3
1155183,0.99,-0.02,0.06,1.5,0.06,-0.01,48.52,-7.68,-5.63,3
1155195,0.99,-0.02,0.06,1.52,-0.32,-0.02,48.47,-7.69,-5.44,3
1155206,0.98,-0.02,0.07,1.51,-0.06,-0.03,48.47,-7.69,-5.44,3
1155218,0.99,-0.02,0.07,1.54,0.45,-0.04,48.47,-7.69,-5.44,3
1155231,0.99,-0.02,0.06,1.59,1.29,0.0,48.47,-7.69,-5.44,3
1155242,0.99,-0.02,0.06,1.59,1.3,0.0,48.54,-7.73,-5.54,3
1155255,0.99,-0.02,0.06,1.55,0.75,-0.01,48.54,-7.73,-5.54,3
1155266,0.99,-0.02,0.06,1.59,0.2,0.01,48.54,-7.73,-5.54,3
1155278,0.99,-0.02,0.06,1.59,-0.36,0.01,48.54,-7.73,-5.54,3
1155291,0.99,-0.02,0.06,1.61,-0.77,0.02,48.48,-7.75,-5.44,3
1155302,0.99,-0.02,0.06,1.56,-0.71,0.01,48.48,-7.75,-5.44,3
1155315,0.99,-0.02,0.06,1.49,-0.86,0.0,48.48,-7.75,-5.44,3
1155326,0.99,-0.02,0.06,1.5,-1.25,0.0,48.48,-7.75,-5.44,3
1155337,0.99,-0.02,0.06,1.53,-1.73,-0.01,48.48,-7.81,-5.27,3
1155350,0.99,-0.02,0.06,1.59,-2.38,-0.02,48.48,-7.81,-5.27,3
1155361,0.99,-0.02,0.06,1.58,-2.45,-0.03,48.48,-7.81,-5.27,3
1155373,0.99,-0.02,0.06,1.57,-2.5,-0.02,48.48,-7.81,-5.27,3
1155385,0.98,-0.02,0.07,1.54,-2.22,-0.04,48.52,-7.72,-5.12,3
1155397,0.99,-0.02,0.07,1.53,-1.99,-0.02,48.52,-7.72,-5.12,3
1155410,0.99,-0.02,0.06,1.49,-2.01,-0.03,48.52,-7.72,-5.12,3
1155421,0.99,-0.02,0.06,1.5,-2.52,-0.04,48.52,-7.72,-5.12,3
1155433,0.99,-0.02,0.06,1.5,-3.42,-0.03,48.52,-7.72,-5.12,3
1155446,0.99,-0.02,0.06,1.55,-5.63,-0.02,48.52,-7.68,-5.3,3
1155458,0.99,-0.02,0.07,1.56,-6.38,-0.03,48.52,-7.68,-5.3,3
1155471,0.98,-0.02,0.07,1.6,-6.24,0.02,48.52,-7.68,-5.3,3
1155483,0.98,-0.02,0.08,1.61,-5.62,0.01,48.52,-7.68,-5.3,3
1155494,0.98,-0.02,0.08,1.59,-4.85,0.02,48.43,-7.69,-5.22,3
1155506,0.98,-0.02,0.07,1.58,-3.77,-3.42,48.43,-7.69,-5.22,3
1155518,0.98,-0.02,0.07,1.61,-3.49,-2.68,48.43,-7.69,-5.22,3
1155532,0.98,-0.02,0.08,1.6,-2.9,-1.64,48.43,-7.69,-5.22,3
1155543,0.99,-0.02,0.07,1.58,-2.64,-1.28,48.4,-7.67,-5.3,3
1155556,0.99,-0.02,0.07,1.57,-2.47,-0.85,48.4,-7.67,-5.3,3
1155567,0.99,-0.02,0.07,1.6,-2.49,-0.63,48.4,-7.67,-5.3,3
1155579,0.99,-0.02,0.07,1.6,-2.5,-0.51,48.4,-7.67,-5.3,3
1155592,0.98,-0.02,0.08,1.61,-2.29,-0.32,48.28,-7.62,-5.31,3
1155604,0.98,-0.02,0.08,1.59,-1.94,-0.24,48.28,-7.62,-5.31,3
1155618,0.98,-0.02,0.08,1.61,-0.88,-0.17,48.28,-7.62,-5.31,3
1155629,0.98,-0.02,0.08,1.59,-0.11,-0.14,48.28,-7.62,-5.31,3
1155642,0.98,-0.02,0.08,1.54,1.09,-0.05,48.36,-7.69,-5.61,3
1155653,0.99,-0.02,0.07,1.55,1.44,-0.03,48.36,-7.69,-5.61,3
1155665,0.99,-0.02,0.07,1.55,1.6,-0.05,48.36,-7.69,-5.61,3
1155676,0.98,-0.02,0.07,1.57,1.93,-0.04,48.36,-7.69,-5.61,3
1155688,0.98,-0.02,0.08,1.55,2.85,-0.05,48.29,-7.67,-5.37,3
1155700,0.98,-0.02,0.08,1.53,4.2,-0.06,48.29,-7.67,-5.37,3
1155711,0.99,-0.02,0.07,1.49,6.6,-0.07,48.29,-7.67,-5.37,3
1155723,0.99,-0.02,0.06,1.5,6.94,-0.04,48.29,-7.67,-5.37,3
1155734,0.99,-0.02,0.06,1.53,6.44,-0.02,48.26,-7.69,-5.31,3
1155746,0.99,-0.02,0.05,1.58,2.87,0.0,48.26,-7.69,-5.31,3
1155758,0.99,-0.02,0.05,1.58,0.57,-0.01,48.26,-7.69,-5.31,3
1155772,0.98,-0.02,0.07,1.61,-1.8,0.0,48.26,-7.69,-5.31,3
1155784,0.98,-0.02,0.07,1.66,-1.07,-0.01,48.24,-7.71,-5.31,3
1155795,0.98,-0.02,0.07,1.66,0.4,-0.02,48.24,-7.71,-5.31,3
1155807,0.99,-0.02,0.06,1.6,1.96,-0.04,48.24,-7.71,-5.31,3
1155818,0.99,-0.02,0.05,1.6,0.95,-0.02,48.24,-7.71,-5.31,3
1155829,1.0,-0.03,0.04,1.57,-1.23,-0.0,48.24,-7.71,-5.31,3
1155842,0.99,-0.04,0.05,1.2,-7.81,-0.0,48.31,-7.73,-5.27,3
1155853,0.99,-0.03,0.06,1.11,-10.45,-0.03,48.31,-7.73,-5.27,3
1155865,0.98,-0.04,0.07,1.4,-11.56,-0.05,48.31,-7.73,-5.27,3
1155876,0.98,-0.02,0.08,1.53,-10.36,-0.09,48.31,-7.73,-5.27,3
1155887,0.98,-0.03,0.07,1.08,-8.95,-0.15,48.27,-7.68,-5.37,3
1155901,0.99,-0.01,0.08,-0.09,-7.58,-0.25,48.27,-7.68,-5.37,3
1155913,0.99,-0.01,0.08,0.08,-7.54,-0.22,48.27,-7.68,-5.37,3
1155927,0.98,-0.01,0.08,0.4,-7.67,-0.21,48.27,-7.68,-5.37,3
1155938,0.98,-0.01,0.09,0.67,-7.35,-0.18,48.29,-7.71,-5.3,3
1155950,0.98,-0.01,0.09,1.03,-5.63,-0.13,48.29,-7.71,-5.3,3
1155962,0.98,-0.02,0.09,1.13,-4.85,-0.09,48.29,-7.71,-5.3,3
1155973,0.98,-0.02,0.08,1.23,-4.25,-0.04,48.29,-7.71,-5.3,3
1155985,0.99,-0.02,0.08,1.31,-4.0,-0.03,48.28,-7.59,-5.43,3
1155996,0.99,-0.02,0.08,1.38,-4.36,-0.05,48.28,-7.59,-5.43,3
1156008,0.99,-0.02,0.08,1.43,-5.55,-0.07,48.28,-7.59,-5.43,3
1156021,0.99,-0.02,0.09,1.56,-7.74,-0.05,48.28,-7.59,-5.43,3
1156034,0.98,-0.02,0.09,1.58,-8.29,-0.05,48.41,-7.55,-5.59,3
1156046,0.98,-0.02,0.1,1.62,-7.46,-0.04,48.41,-7.55,-5.59,3
1156058,0.98,-0.01,0.1,1.48,-6.33,-0.07,48.41,-7.55,-5.59,3
1156071,0.98,-0.01,0.1,0.77,-3.28,-0.12,48.41,-7.55,-5.59,3
1156082,0.98,-0.01,0.11,0.48,-1.66,-0.12,48.41,-7.55,-5.59,3
1156093,0.98,-0.01,0.11,0.29,0.23,-0.15,48.45,-7.6,-5.83,3
1156107,0.98,-0.01,0.1,0.56,3.93,-0.11,48.45,-7.6,-5.83,3
1156119,0.99,-0.03,0.09,0.66,4.64,-0.07,48.45,-7.6,-5.83,3
1156129,0.99,-0.02,0.08,0.65,3.89,-0.12,48.45,-7.6,-5.83,3
1156142,1.0,-0.03,0.06,-0.08,-1.32,-0.2,48.27,-7.63,-5.75,3
1156154,1.0,-0.02,0.06,-0.42,-5.2,-0.24,48.27,-7.63,-5.75,3
1156167,0.99,-0.03,0.08,-0.68,-12.23,-0.26,48.27,-7.63,-5.75,3
1156179,0.98,-0.03,0.1,-1.06,-13.92,-0.33,48.27,-7.63,-5.75,3
1156193,0.97,-0.03,0.12,-1.48,-12.49,-0.36,48.34,-7.65,-5.73,3
1156205,0.97,-0.03,0.12,-1.24,-10.0,-0.35,48.34,-7.65,-5.73,3
1156218,0.97,-0.03,0.12,-0.36,-3.78,-0.24,48.34,-7.65,-5.73,3
1156229,0.97,-0.03,0.12,-0.05,-0.9,-0.22,48.34,-7.65,-5.73,3
1156240,0.98,-0.03,0.11,0.19,1.21,-0.24,48.2,-7.71,-5.81,3
1156251,0.98,-0.03,0.11,0.61,2.86,-0.14,48.2,-7.71,-5.81,3
1156262,0.99,-0.03,0.1,0.81,2.7,-0.11,48.2,-7.71,-5.81,3
1156274,0.98,-0.03,0.1,0.97,2.18,-0.09,48.2,-7.71,-5.81,3
1156285,0.99,-0.03,0.1,1.1,1.69,-0.07,48.17,-7.75,-5.98,3
1156296,0.99,-0.02,0.1,1.2,1.16,-0.04,48.17,-7.75,-5.98,3
1156308,0.99,-0.02,0.1,1.28,0.56,-0.06,48.17,-7.75,-5.98,3
1156321,0.99,-0.02,0.1,1.47,-0.76,-0.0,48.17,-7.75,-5.98,3
1156334,0.99,-0.02,0.1,1.51,-1.25,0.05,48.14,-7.8,-6.21,3
1156348,0.99,-0.02,0.1,1.57,-2.38,0.06,48.14,-7.8,-6.21,3
1156359,0.99,-0.02,0.1,1.57,-3.06,0.04,48.14,-7.8,-6.21,3
1156373,0.98,-0.02,0.1,1.6,-4.27,0.01,48.14,-7.8,-6.21,3
1156384,0.98,-0.02,0.11,1.63,-4.27,0.01,48.15,-7.69,-6.43,3
1156396,0.98,-0.02,0.11,1.63,-3.69,0.01,48.15,-7.69,-6.43,3
1156408,0.98,-0.03,0.12,1.44,-1.34,-0.05,48.15,-7.69,-6.43,3
1156420,0.98,-0.03,0.11,1.29,0.15,-0.08,48.15,-7.69,-6.43,3
1156434,0.98,-0.02,0.11,1.27,3.23,-0.05,48.3,-7.73,-6.6,3
1156446,0.98,-0.02,0.1,1.31,4.32,-0.05,48.3,-7.73,-6.6,3
1156457,0.98,-0.02,0.1,1.4,5.03,-0.02,48.3,-7.73,-6.6,3
1156468,0.98,-0.02,0.1,1.44,4.88,-0.01,48.3,-7.73,-6.6,3
1156480,0.98,-0.02,0.1,1.51,4.85,0.0,48.3,-7.73,-6.6,3
1156491,0.98,-0.02,0.1,1.59,5.95,-0.01,48.39,-7.66,-6.53,3
1156502,0.98,-0.02,0.1,1.56,6.9,-0.03,48.39,-7.66,-6.53,3
1156513,0.98,-0.02,0.09,1.55,7.53,-0.04,48.39,-7.66,-6.53,3
1156524,0.99,-0.02,0.08,1.57,7.4,-0.03,48.39,-7.66,-6.53,3
1156537,0.99,-0.02,0.08,1.61,5.14,-0.01,48.33,-7.6,-6.44,3
1156549,0.99,-0.02,0.08,1.61,3.52,0.02,48.33,-7.6,-6.44,3
1156562,0.99,-0.02,0.08,1.64,0.92,0.01,48.33,-7.6,-6.44,3
1156574,0.99,-0.02,0.08,1.69,0.15,0.02,48.33,-7.6,-6.44,3
1156586,0.99,-0.02,0.08,1.65,-0.73,0.05,48.2,-7.68,-6.35,3
1156597,0.99,-0.02,0.08,1.62,-0.97,0.05,48.2,-7.68,-6.35,3
1156609,0.99,-0.02,0.08,1.63,-1.32,0.03,48.2,-7.68,-6.35,3
1156622,0.99,-0.02,0.08,1.65,-2.43,0.02,48.2,-7.68,-6.35,3
1156633,0.99,-0.02,0.08,1.62,-3.05,-0.0,48.12,-7.73,-6.08,3
1156646,0.99,-0.02,0.09,1.58,-3.94,0.03,48.12,-7.73,-6.08,3
1156657,0.98,-0.02,0.09,1.57,-4.08,0.01,48.12,-7.73,-6.08,3
1156669,0.98,-0.02,0.09,1.57,-4.03,-0.02,48.12,-7.73,-6.08,3
1156683,0.98,-0.02,0.09,1.65,-3.57,-0.01,48.13,-7.67,-5.82,3
1156695,0.99,-0.02,0.09,1.65,-3.61,-0.02,48.13,-7.67,-5.82,3
1156706,0.99,-0.02,0.09,1.64,-4.7,-0.03,48.13,-7.67,-5.82,3
1156717,0.99,-0.02,0.09,1.67,-5.61,-0.01,48.13,-7.67,-5.82,3
1156729,0.98,-0.02,0.09,1.68,-6.29,0.0,48.13,-7.67,-5.82,3
1156742,0.98,-0.02,0.1,1.64,-5.91,0.02,48.13,-7.61,-5.9,3
1156754,0.98,-0.02,0.11,1.64,-4.73,0.0,48.13,-7.61,-5.9,3
1156767,0.98,-0.02,0.11,1.61,-1.59,0.03,48.13,-7.61,-5.9,3
1156778,0.98,-0.02,0.1,1.62,-0.3,0.06,48.13,-7.61,-5.9,3
1156788,0.98,-0.02,0.1,1.62,0.51,0.08,48.19,-7.63,-5.84,3
1156802,0.99,-0.02,0.09,1.49,0.64,0.03,48.19,-7.63,-5.84,3
1156814,0.99,-0.02,0.09,1.43,-0.12,0.02,48.19,-7.63,-5.84,3
1156826,0.99,-0.02,0.09,1.47,-1.85,0.01,48.19,-7.63,-5.84,3
1156839,0.98,-0.03,0.09,1.51,-2.31,-0.0,48.21,-7.55,-5.64,3
1156850,0.98,-0.02,0.1,1.55,-2.61,-0.02,48.21,-7.55,-5.64,3
1156862,0.98,-0.02,0.1,1.54,-3.14,0.0,48.21,-7.55,-5.64,3
1156873,0.98,-0.02,0.1,1.59,-3.2,0.03,48.21,-7.55,-5.64,3
1156884,0.98,-0.02,0.1,1.6,-2.89,0.02,48.24,-7.54,-5.79,3
1156894,0.98,-0.02,0.1,1.63,-2.21,0.02,48.24,-7.54,-5.79,3
1156905,0.98,-0.02,0.1,1.58,-0.81,-0.01,48.24,-7.54,-5.79,3
1156916,0.98,-0.02,0.1,1.59,-0.81,0.01,48.24,-7.54,-5.79,3
1156927,0.98,-0.02,0.1,1.6,-1.11,0.02,48.24,-7.54,-5.79,3
1156940,0.98,-0.02,0.1,1.58,-1.05,0.05,48.18,-7.59,-5.73,3
1156952,0.98,-0.02,0.1,1.54,-0.36,0.02,48.18,-7.59,-5.73,3
1156966,0.98,-0.02,0.1,1.54,1.27,-0.0,48.18,-7.59,-5.73,3
1156978,0.98,-0.02,0.1,1.58,1.64,0.02,48.18,-7.59,-5.73,3
1156989,0.99,-0.02,0.09,1.54,0.73,0.02,48.13,-7.65,-5.95,3
1157000,0.99,-0.02,0.09,1.56,-0.07,0.02,48.13,-7.65,-5.95,3
1157012,0.98,-0.02,0.09,1.57,-0.76,0.02,48.13,-7.65,-5.95,3
1157026,0.98,-0.02,0.09,1.62,-1.51,0.01,48.13,-7.65,-5.95,3
1157037,0.99,-0.02,0.09,1.61,-1.75,0.02,48.18,-7.59,-5.75,3
1157048,0.99,-0.02,0.09,1.61,-2.04,0.0,48.18,-7.59,-5.75,3
1157060,0.99,-0.02,0.09,1.62,-2.99,-0.03,48.18,-7.59,-5.75,3
1157072,0.99,-0.02,0.09,1.64,-3.62,0.0,48.18,-7.59,-5.75,3
1157083,0.98,-0.02,0.09,1.61,-4.29,0.02,48.21,-7.63,-5.88,3
1157095,0.98,-0.02,0.1,1.65,-4.93,0.03,48.21,-7.63,-5.88,3
1157105,0.98,-0.02,0.11,1.63,-4.57,0.02,48.21,-7.63,-5.88,3
1157116,0.98,-0.02,0.11,1.62,-3.44,0.04,48.21,-7.63,-5.88,3
1157129,0.97,-0.02,0.12,1.6,0.8,-0.0,48.21,-7.63,-5.88,3
1157140,0.97,-0.02,0.11,1.61,3.53,-0.0,48.15,-7.67,-5.86,3
1157151,0.98,-0.02,0.11,1.59,6.17,-0.0,48.15,-7.67,-5.86,3
1157163,0.99,-0.02,0.09,1.54,8.59,-0.02,48.15,-7.67,-5.86,3
1157175,0.99,-0.02,0.08,1.56,7.46,-0.03,48.15,-7.67,-5.86,3
1157187,0.99,-0.02,0.08,1.66,2.56,0.03,48.07,-7.63,-5.95,3
1157198,0.98,-0.02,0.09,1.66,0.81,0.04,48.07,-7.63,-5.95,3
1157209,0.98,-0.02,0.1,1.63,0.42,-0.03,48.07,-7.63,-5.95,3
1157220,0.98,-0.02,0.1,1.62,1.28,-0.01,48.07,-7.63,-5.95,3
1157233,0.98,-0.03,0.1,1.61,4.38,-0.02,48.19,-7.53,-5.98,3
1157244,0.98,-0.03,0.09,1.52,5.24,-0.04,48.19,-7.53,-5.98,3
1157258,0.99,-0.02,0.08,1.3,5.04,-0.08,48.19,-7.53,-5.98,3
1157270,0.99,-0.02,0.08,1.31,4.48,-0.06,48.19,-7.53,-5.98,3
1157284,0.99,-0.02,0.08,1.48,3.28,-0.09,48.12,-7.62,-6.07,3
1157296,0.98,-0.02,0.08,1.52,3.08,-0.08,48.12,-7.62,-6.07,3
1157310,0.99,-0.02,0.08,1.48,3.67,-0.01,48.12,-7.62,-6.07,3
1157322,0.99,-0.02,0.07,1.52,3.49,0.0,48.12,-7.62,-6.07,3
1157333,0.99,-0.02,0.07,1.55,2.61,-0.02,48.11,-7.58,-6.01,3
1157344,0.99,-0.02,0.07,1.58,1.23,-0.03,48.11,-7.58,-6.01,3
1157354,0.99,-0.03,0.08,1.61,-0.4,-0.05,48.11,-7.58,-6.01,3
1157366,0.98,-0.02,0.08,1.65,-1.08,-0.04,48.11,-7.58,-6.01,3
1157378,0.98,-0.02,0.08,1.61,-0.37,-0.04,48.11,-7.58,-6.01,3
1157389,0.99,-0.03,0.08,1.59,-0.25,-0.04,48.2,-7.64,-5.94,3
1157402,0.99,-0.02,0.08,1.53,-1.44,-0.09,48.2,-7.64,-5.94,3
1157413,0.99,-0.02,0.07,1.54,-2.07,-0.07,48.2,-7.64,-5.94,3
1157425,0.99,-0.02,0.07,1.54,-3.0,-0.03,48.2,-7.64,-5.94,3
1157438,0.99,-0.02,0.07,1.57,-5.29,0.01,48.28,-7.71,-5.81,3
1157450,0.99,-0.02,0.08,1.59,-6.56,0.02,48.28,-7.71,-5.81,3
1157460,0.99,-0.02,0.08,1.58,-7.62,0.02,48.28,-7.71,-5.81,3
1157471,0.99,-0.02,0.08,1.63,-9.05,0.05,48.28,-7.71,-5.81,3
1157483,0.99,-0.02,0.09,1.65,-9.57,0.08,48.22,-7.8,-5.88,3
1157493,0.98,-0.02,0.09,1.66,-10.03,0.07,48.22,-7.8,-5.88,3
1157506,0.98,-0.02,0.09,1.61,-10.74,-0.01,48.22,-7.8,-5.88,3
1157518,0.98,-0.02,0.1,1.62,-11.13,0.03,48.22,-7.8,-5.88,3
1157532,0.98,-0.02,0.1,1.65,-11.41,0.02,48.19,-7.8,-6.06,3
1157543,0.98,-0.02,0.1,1.64,-11.2,-0.0,48.19,-7.8,-6.06,3
1157556,0.98,-0.02,0.1,1.63,-10.87,-0.03,48.19,-7.8,-6.06,3
1157567,0.98,-0.02,0.1,1.62,-11.21,-0.01,48.19,-7.8,-6.06,3
1157578,0.99,-0.02,0.1,1.64,-12.07,0.0,48.19,-7.8,-6.06,3
1157589,0.98,-0.02,0.11,1.64,-13.18,-0.02,48.19,-7.83,-6.09,3
1157601,0.98,-0.02,0.12,1.59,-14.51,-0.0,48.19,-7.83,-6.09,3
1157612,0.98,-0.02,0.12,1.59,-14.52,-0.04,48.19,-7.83,-6.09,3
1157625,0.98,-0.02,0.13,1.42,-12.98,-0.1,48.19,-7.83,-6.09,3
1157637,0.98,-0.02,0.13,1.06,-11.63,-0.15,48.02,-7.85,-6.29,3
1157649,0.97,-0.02,0.14,0.88,-10.27,-0.14,48.02,-7.85,-6.29,3
1157661,0.97,-0.02,0.14,1.08,-7.17,-0.08,48.02,-7.85,-6.29,3
1157673,0.97,-0.02,0.14,1.22,-5.18,-0.06,48.02,-7.85,-6.29,3
1157685,0.97,-0.02,0.14,1.41,-1.44,-0.07,47.93,-7.96,-6.56,3
1157696,0.98,-0.03,0.13,1.43,-0.53,-0.06,47.93,-7.96,-6.56,3
1157708,0.98,-0.02,0.13,1.28,-0.44,-0.11,47.93,-7.96,-6.56,3
1157721,0.98,-0.03,0.13,0.81,-1.31,-0.18,47.93,-7.96,-6.56,3
1157733,0.98,-0.03,0.13,0.33,-1.22,-0.28,47.79,-7.93,-6.49,3
1157747,0.98,-0.02,0.14,-0.14,0.78,-0.37,47.79,-7.93,-6.49,3
1157758,0.98,-0.02,0.13,0.09,1.66,-0.31,47.79,-7.93,-6.49,3
1157769,0.98,-0.02,0.13,0.4,2.4,-0.24,47.79,-7.93,-6.49,3
1157780,0.98,-0.02,0.13,0.86,3.37,-0.17,47.79,-7.93,-6.49,3
1157792,0.98,-0.02,0.13,0.98,3.89,-0.12,47.75,-7.93,-6.48,3
1157802,0.98,-0.02,0.13,1.07,4.25,-0.12,47.75,-7.93,-6.48,3
1157812,0.98,-0.02,0.12,1.19,4.41,-0.12,47.75,-7.93,-6.48,3
1157823,0.98,-0.02,0.12,1.39,4.52,-0.04,47.75,-7.93,-6.48,3
1157835,0.98,-0.03,0.12,1.41,4.64,-0.02,47.55,-7.96,-6.38,3
1157846,0.98,-0.03,0.12,1.43,4.9,0.01,47.55,-7.96,-6.38,3
1157859,0.98,-0.02,0.12,1.53,6.33,0.02,47.55,-7.96,-6.38,3
1157869,0.98,-0.02,0.12,1.61,7.02,0.03,47.55,-7.96,-6.38,3
1157881,0.98,-0.02,0.11,1.62,7.61,0.06,47.63,-7.96,-6.5,3
1157893,0.99,-0.02,0.1,1.63,7.11,0.07,47.63,-7.96,-6.5,3
1157905,0.99,-0.02,0.1,1.61,6.05,0.04,47.63,-7.96,-6.5,3
1157917,0.99,-0.02,0.1,1.64,3.58,0.07,47.63,-7.96,-6.5,3
1157928,0.98,-0.02,0.11,1.63,2.75,0.08,47.63,-7.96,-6.5,3
1157939,0.98,-0.02,0.11,1.62,2.33,0.09,47.63,-8.01,-6.46,3
1157953,0.98,-0.03,0.11,1.58,2.14,0.02,47.63,-8.01,-6.46,3
1157965,0.98,-0.03,0.11,1.6,1.85,0.01,47.63,-8.01,-6.46,3
1157975,0.98,-0.03,0.11,1.86,1.59,0.04,47.63,-8.01,-6.46,3
1157988,0.98,-0.02,0.1,2.28,1.16,0.12,47.82,-7.86,-6.41,3
1157998,0.98,-0.02,0.1,2.2,0.97,0.12,47.82,-7.86,-6.41,3
1158008,0.98,-0.02,0.1,2.16,0.71,0.12,47.82,-7.86,-6.41,3
1158018,0.98,-0.02,0.1,2.25,0.5,0.15,47.82,-7.86,-6.41,3
1158029,0.98,-0.02,0.1,2.37,0.59,0.16,47.82,-7.86,-6.41,3
1158041,0.98,-0.02,0.1,2.18,0.74,0.11,47.9,-7.79,-6.41,3
1158052,0.99,-0.02,0.1,1.98,0.2,0.06,47.9,-7.79,-6.41,3
1158063,0.99,-0.03,0.1,1.48,-2.67,-0.07,47.9,-7.79,-6.41,3
1158074,0.99,-0.02,0.09,1.57,-3.93,-0.03,47.9,-7.79,-6.41,3
1158085,0.99,-0.02,0.1,1.66,-4.92,0.01,47.85,-7.85,-6.48,3
1158099,0.98,-0.02,0.1,1.64,-5.95,-0.03,47.85,-7.85,-6.48,3
1158111,0.98,-0.02,0.11,1.61,-5.97,-0.03,47.85,-7.85,-6.48,3
1158123,0.98,-0.02,0.11,1.6,-5.06,0.0,47.85,-7.85,-6.48,3
1158135,0.98,-0.02,0.11,1.6,-4.58,0.0,47.93,-7.95,-6.47,3
1158147,0.98,-0.02,0.11,1.62,-4.28,0.0,47.93,-7.95,-6.47,3
1158159,0.98,-0.02,0.11,1.57,-3.7,-0.01,47.93,-7.95,-6.47,3
1158171,0.98,-0.02,0.11,1.57,-3.24,-0.02,47.93,-7.95,-6.47,3
1158183,0.98,-0.02,0.11,1.57,-2.38,-0.04,47.88,-7.91,-6.6,3
1158195,0.98,-0.02,0.11,1.57,-2.15,-0.05,47.88,-7.91,-6.6,3
1158206,0.98,-0.02,0.11,1.53,-2.05,-0.08,47.88,-7.91,-6.6,3
1158218,0.98,-0.02,0.11,1.5,-2.29,-0.05,47.88,-7.91,-6.6,3
1158229,0.98,-0.02,0.11,1.5,-2.54,0.0,47.88,-7.91,-6.6,3
1158240,0.98,-0.02,0.11,1.49,-3.0,-0.01,47.98,-7.79,-6.81,3
1158254,0.99,-0.01,0.11,1.52,-4.74,-0.06,47.98,-7.79,-6.81,3
1158266,0.98,-0.02,0.11,1.5,-5.85,-0.06,47.98,-7.79,-6.81,3
1158280,0.98,-0.02,0.11,1.29,-7.4,-0.05,48.0,-7.84,-6.97,3
1158292,0.98,-0.02,0.11,1.1,-7.69,-0.1,48.0,-7.84,-6.97,3
1158304,0.98,-0.02,0.12,0.14,-7.12,-0.25,48.0,-7.84,-6.97,3
1158315,0.98,-0.02,0.13,0.35,-7.06,-0.23,48.0,-7.84,-6.97,3
1158327,0.98,-0.02,0.12,0.6,-6.9,-0.15,48.0,-7.84,-6.97,3
1158340,0.98,-0.02,0.12,0.93,-7.38,-0.07,48.03,-7.75,-7.11,3
1158351,0.98,-0.02,0.12,1.05,-7.72,-0.08,48.03,-7.75,-7.11,3
1158362,0.98,-0.02,0.13,1.15,-8.13,-0.09,48.03,-7.75,-7.11,3
1158374,0.97,-0.02,0.14,1.35,-8.13,-0.03,48.03,-7.75,-7.11,3
1158385,0.97,-0.02,0.14,1.39,-7.16,-0.01,47.88,-7.75,-7.02,3
1158398,0.97,-0.02,0.14,1.39,-4.4,-0.06,47.88,-7.75,-7.02,3
1158409,0.98,-0.02,0.13,1.39,-3.41,-0.03,47.88,-7.75,-7.02,3
1158421,0.98,-0.02,0.13,1.37,-3.24,0.0,47.88,-7.75,-7.02,3
1158434,0.98,-0.02,0.13,1.38,-4.22,-0.02,47.9,-7.69,-7.21,3
1158446,0.98,-0.02,0.14,1.48,-4.53,-0.02,47.9,-7.69,-7.21,3
1158459,0.97,-0.02,0.15,1.57,-3.36,-0.05,47.9,-7.69,-7.21,3
1158470,0.97,-0.02,0.15,1.58,-1.76,-0.02,47.9,-7.69,-7.21,3
1158481,0.97,-0.02,0.14,1.57,0.13,-0.02,47.97,-7.78,-7.2,3
1158495,0.98,-0.02,0.13,1.56,2.49,-0.03,47.97,-7.78,-7.2,3
1158506,0.98,-0.02,0.13,1.52,2.62,-0.03,47.97,-7.78,-7.2,3
1158520,0.98,-0.02,0.13,1.54,1.61,-0.01,47.97,-7.78,-7.2,3
1158531,0.98,-0.02,0.13,1.55,1.12,-0.0,47.81,-7.79,-7.2,3
1158544,0.98,-0.02,0.13,1.57,0.94,0.01,47.81,-7.79,-7.2,3
1158555,0.98,-0.02,0.13,1.58,1.21,-0.02,47.81,-7.79,-7.2,3
1158566,0.98,-0.02,0.13,1.59,1.47,-0.0,47.81,-7.79,-7.2,3
1158581,0.98,-0.02,0.13,1.56,1.52,0.02,47.76,-7.73,-7.21,3
1158593,0.98,-0.02,0.13,1.55,1.35,0.03,47.76,-7.73,-7.21,3
1158606,0.98,-0.02,0.13,1.53,1.68,0.0,47.76,-7.73,-7.21,3
1158618,0.98,-0.02,0.13,1.53,2.43,-0.01,47.76,-7.73,-7.21,3
1158632,0.98,-0.02,0.13,1.53,4.17,-0.04,47.75,-7.76,-7.19,3
1158643,0.98,-0.02,0.12,1.54,4.57,-0.03,47.75,-7.76,-7.19,3
1158653,0.98,-0.02,0.12,1.52,4.53,-0.05,47.75,-7.76,-7.19,3
1158663,0.98,-0.02,0.12,1.5,3.91,-0.04,47.75,-7.76,-7.19,3
1158674,0.98,-0.02,0.12,1.5,1.74,-0.04,47.75,-7.76,-7.19,3
1158686,0.98,-0.02,0.12,1.52,0.93,-0.04,47.78,-7.71,-7.19,3
1158698,0.98,-0.02,0.12,1.53,0.89,-0.03,47.78,-7.71,-7.19,3
1158709,0.98,-0.02,0.12,1.54,1.14,-0.02,47.78,-7.71,-7.19,3
1158720,0.98,-0.02,0.12,1.55,1.15,-0.03,47.78,-7.71,-7.19,3
1158731,0.98,-0.02,0.12,1.56,0.87,-0.02,47.77,-7.64,-7.14,3
1158743,0.98,-0.02,0.12,1.6,-0.27,-0.04,47.77,-7.64,-7.14,3
1158755,0.98,-0.02,0.12,1.61,-0.76,-0.02,47.77,-7.64,-7.14,3
1158768,0.98,-0.02,0.12,1.62,-0.76,-0.07,47.77,-7.64,-7.14,3
1158780,0.98,-0.02,0.12,1.6,-0.26,-0.05,47.72,-7.67,-6.98,3
1158791,0.98,-0.02,0.12,1.6,0.34,-0.04,47.72,-7.67,-6.98,3
1158803,0.98,-0.02,0.12,1.5,0.92,-0.06,47.72,-7.67,-6.98,3
1158814,0.98,-0.02,0.12,1.52,0.84,-0.05,47.72,-7.67,-6.98,3
1158824,0.98,-0.02,0.12,1.55,0.66,-0.05,47.72,-7.67,-6.98,3
1158835,0.98,-0.02,0.12,1.56,0.42,-0.03,47.78,-7.73,-6.87,3
1158846,0.98,-0.03,0.12,1.53,0.01,-0.02,47.78,-7.73,-6.87,3
1158857,0.98,-0.03,0.12,1.41,-0.06,-0.08,47.78,-7.73,-6.87,3
1158868,0.98,-0.02,0.12,1.35,0.28,-0.13,47.78,-7.73,-6.87,3
1158881,0.98,-0.02,0.12,1.3,1.38,-0.07,47.69,-7.63,-6.98,3
1158892,0.98,-0.02,0.12,1.31,1.65,-0.05,47.69,-7.63,-6.98,3
1158902,0.98,-0.02,0.11,1.32,1.73,-0.07,47.69,-7.63,-6.98,3
1158915,0.98,-0.02,0.11,1.44,1.09,-0.02,47.69,-7.63,-6.98,3
1158926,0.98,-0.02,0.11,1.46,0.69,0.0,47.69,-7.63,-6.98,3
1158937,0.98,-0.02,0.11,1.49,0.31,0.03,47.81,-7.66,-6.79,3
1158947,0.98,-0.02,0.11,1.5,-0.04,-0.0,47.81,-7.66,-6.79,3
1158959,0.98,-0.02,0.11,1.52,0.09,-0.0,47.81,-7.66,-6.79,3
1158970,0.98,-0.02,0.11,1.55,0.27,-0.0,47.81,-7.66,-6.79,3
1158983,0.98,-0.02,0.11,1.59,0.65,0.03,47.79,-7.65,-6.85,3
1158994,0.98,-0.02,0.11,1.57,0.56,0.04,47.79,-7.65,-6.85,3
1159004,0.98,-0.02,0.11,1.55,0.4,0.0,47.79,-7.65,-6.85,3
1159014,0.98,-0.02,0.11,1.56,0.03,0.03,47.79,-7.65,-6.85,3
1159024,0.98,-0.02,0.11,1.55,-0.41,0.05,47.79,-7.65,-6.85,3
1159037,0.98,-0.02,0.11,1.62,-0.92,0.05,47.72,-7.63,-6.97,3
1159048,0.98,-0.02,0.11,1.64,-0.98,0.06,47.72,-7.63,-6.97,3
1159060,0.98,-0.02,0.11,1.61,-0.7,-0.0,47.72,-7.63,-6.97,3
1159072,0.98,-0.02,0.11,1.59,-0.55,0.01,47.72,-7.63,-6.97,3
1159083,0.98,-0.02,0.11,1.58,-0.51,-0.0,47.71,-7.64,-6.87,3
1159095,0.98,-0.02,0.11,1.58,-0.82,0.03,47.71,-7.64,-6.87,3
1159107,0.98,-0.02,0.11,1.57,-1.07,0.01,47.71,-7.64,-6.87,3
1159121,0.98,-0.02,0.11,1.6,-1.46,0.02,47.71,-7.64,-6.87,3
1159132,0.98,-0.02,0.11,1.58,-1.49,0.04,47.73,-7.74,-6.73,3
1159142,0.98,-0.02,0.11,1.57,-1.48,0.05,47.73,-7.74,-6.73,3
1159152,0.98,-0.02,0.11,1.59,-1.42,0.05,47.73,-7.74,-6.73,3
1159164,0.98,-0.02,0.11,1.64,-1.25,0.01,47.73,-7.74,-6.73,3
1159174,0.98,-0.02,0.11,1.63,-1.08,0.02,47.73,-7.74,-6.73,3
1159185,0.98,-0.02,0.11,1.62,-0.92,0.04,47.67,-7.67,-6.7,3
1159198,0.98,-0.02,0.11,1.64,-1.14,0.04,47.67,-7.67,-6.7,3
1159210,0.98,-0.02,0.11,1.67,-1.56,0.03,47.67,-7.67,-6.7,3
1159224,0.98,-0.02,0.12,1.59,-1.95,0.03,47.67,-7.67,-6.7,3
1159235,0.98,-0.02,0.12,1.59,-1.56,0.02,47.79,-7.82,-6.66,3
1159247,0.98,-0.02,0.12,1.6,-0.92,0.02,47.79,-7.82,-6.66,3
1159259,0.98,-0.02,0.11,1.6,0.15,0.0,47.79,-7.82,-6.66,3
1159270,0.98,-0.02,0.11,1.61,-0.06,0.0,47.79,-7.82,-6.66,3
1159282,0.98,-0.02,0.11,1.65,-1.4,-0.0,47.85,-7.79,-6.6,3
1159294,0.98,-0.02,0.11,1.69,-1.86,-0.0,47.85,-7.79,-6.6,3
1159306,0.98,-0.02,0.11,1.65,-1.95,-0.05,47.85,-7.79,-6.6,3
1159317,0.98,-0.02,0.11,1.59,-1.43,-0.04,47.85,-7.79,-6.6,3
1159329,0.98,-0.02,0.11,1.6,-1.26,-0.01,47.85,-7.77,-6.67,3
1159341,0.98,-0.02,0.11,1.6,-1.25,-0.01,47.85,-7.77,-6.67,3
1159353,0.98,-0.02,0.11,1.58,-1.81,-0.01,47.85,-7.77,-6.67,3
1159365,0.98,-0.02,0.11,1.6,-2.08,0.02,47.85,-7.77,-6.67,3
1159377,0.98,-0.02,0.11,1.63,-2.08,0.02,47.85,-7.77,-6.67,3
1159389,0.98,-0.02,0.12,1.58,-1.76,0.0,47.81,-7.73,-6.91,3
1159401,0.98,-0.02,0.12,1.58,-1.21,-0.02,47.81,-7.73,-6.91,3
1159413,0.98,-0.02,0.11,1.63,-0.26,-0.02,47.81,-7.73,-6.91,3
1159425,0.98,-0.02,0.11,1.62,-0.05,-0.01,47.81,-7.73,-6.91,3
1159437,0.98,-0.02,0.11,1.67,-0.3,-0.02,47.85,-7.71,-6.92,3
1159448,0.98,-0.02,0.11,1.67,-0.6,-0.01,47.85,-7.71,-6.92,3
1159460,0.98,-0.02,0.11,1.62,-0.75,0.02,47.85,-7.71,-6.92,3
1159473,0.98,-0.02,0.11,1.64,-0.46,0.0,47.85,-7.71,-6.92,3
1159485,0.98,-0.02,0.11,1.64,-0.27,0.0,47.83,-7.85,-7.08,3
1159495,0.98,-0.02,0.11,1.63,-0.18,0.03,47.83,-7.85,-7.08,3
1159506,0.98,-0.02,0.11,1.62,-0.39,0.03,47.83,-7.85,-7.08,3
1159517,0.98,-0.02,0.11,1.65,-0.6,0.05,47.83,-7.85,-7.08,3
1159527,0.98,-0.02,0.11,1.69,-0.67,0.04,47.83,-7.85,-7.08,3
1159538,0.98,-0.02,0.11,1.69,-0.56,0.06,47.76,-7.79,-7.12,3
1159549,0.98,-0.02,0.11,1.68,-0.18,0.04,47.76,-7.79,-7.12,3
1159560,0.98,-0.02,0.11,1.64,-0.21,0.02,47.76,-7.79,-7.12,3
1159571,0.98,-0.02,0.11,1.59,-0.43,0.0,47.76,-7.79,-7.12,3
1159584,0.98,-0.02,0.11,1.63,-0.92,0.05,47.7,-7.75,-6.85,3
1159595,0.98,-0.02,0.11,1.68,-0.72,0.04,47.7,-7.75,-6.85,3
1159605,0.98,-0.02,0.11,1.66,-0.4,0.04,47.7,-7.75,-6.85,3
1159615,0.98,-0.02,0.11,1.64,-0.14,0.03,47.7,-7.75,-6.85,3
1159625,0.98,-0.02,0.11,1.67,-0.04,0.03,47.7,-7.75,-6.85,3
1159638,0.98,-0.02,0.11,1.66,-0.25,0.08,47.72,-7.8,-6.96,3
1159649,0.98,-0.02,0.11,1.59,-0.49,0.05,47.72,-7.8,-6.96,3
1159662,0.98,-0.02,0.11,1.59,-0.66,0.01,47.72,-7.8,-6.96,3
1159672,0.98,-0.02,0.11,1.6,-0.61,0.05,47.72,-7.8,-6.96,3
1159683,0.98,-0.02,0.11,1.6,-0.27,0.05,47.76,-7.82,-6.95,3
1159693,0.98,-0.02,0.11,1.58,0.16,0.05,47.76,-7.82,-6.95,3
1159704,0.98,-0.04,0.1,0.52,0.94,-0.13,47.76,-7.82,-6.95,3
1159716,0.98,-0.03,0.11,0.11,1.52,-0.19,47.76,-7.82,-6.95,3
1159729,0.98,-0.02,0.11,0.3,1.58,-0.15,47.86,-7.82,-6.99,3
1159740,0.98,-0.02,0.11,0.49,1.43,-0.1,47.86,-7.82,-6.99,3
1159752,0.98,-0.02,0.11,0.75,1.16,-0.11,47.86,-7.82,-6.99,3
1159765,0.98,-0.02,0.11,1.1,0.53,-0.05,47.86,-7.82,-6.99,3
1159778,0.98,-0.02,0.11,1.2,0.63,-0.04,47.92,-7.97,-6.88,3
1159789,0.98,-0.02,0.11,1.38,1.69,0.01,47.92,-7.97,-6.88,3
1159800,0.98,-0.02,0.11,1.43,2.35,-0.02,47.92,-7.97,-6.88,3
1159812,0.98,-0.02,0.1,1.48,2.77,0.0,47.92,-7.97,-6.88,3
1159822,0.98,-0.02,0.1,1.53,2.82,0.04,47.92,-7.97,-6.88,3
1159835,0.98,-0.02,0.1,1.56,2.23,0.04,48.02,-7.95,-6.68,3
1159845,0.98,-0.02,0.1,1.55,1.8,0.06,48.02,-7.95,-6.68,3
1159855,0.98,-0.02,0.1,1.52,1.65,0.04,48.02,-7.95,-6.68,3
1159865,0.98,-0.02,0.1,1.52,1.86,0.02,48.02,-7.95,-6.68,3
1159877,0.98,-0.02,0.1,1.55,2.96,0.03,48.02,-7.95,-6.68,3
1159888,0.98,-0.02,0.1,1.53,3.28,0.03,48.05,-7.98,-6.56,3
1159898,0.99,-0.02,0.09,1.53,3.12,0.02,48.05,-7.98,-6.56,3
1159908,0.99,-0.02,0.09,1.53,2.49,0.02,48.05,-7.98,-6.56,3
1159920,0.99,-0.02,0.09,1.55,0.91,0.05,48.05,-7.98,-6.56,3
1159931,0.99,-0.02,0.09,1.57,0.27,0.06,48.01,-8.0,-6.62,3
1159941,0.99,-0.02,0.09,1.56,-0.4,0.06,48.01,-8.0,-6.62,3
1159951,0.99,-0.02,0.09,1.53,-0.94,0.06,48.01,-8.0,-6.62,3
1159963,0.99,-0.02,0.09,1.58,-2.05,0.1,48.01,-8.0,-6.62,3
1159973,0.99,-0.03,0.08,1.75,-2.39,0.12,48.01,-8.0,-6.62,3
1159984,0.98,-0.03,0.08,2.28,-1.87,0.21,48.04,-8.0,-6.5,3
1159994,0.98,-0.02,0.08,2.28,-0.3,0.14,48.04,-8.0,-6.5,3
1160006,0.99,-0.01,0.1,1.37,0.62,0.06,48.04,-8.0,-6.5,3
1160016,0.99,-0.01,0.1,1.46,-1.21,0.05,48.04,-8.0,-6.5,3
1160026,0.99,-0.01,0.1,1.53,-3.0,0.05,48.04,-8.0,-6.5,3
1160037,0.98,-0.02,0.11,1.57,-4.13,0.07,48.09,-8.03,-6.39,3
1160049,0.98,-0.02,0.11,1.53,-2.33,0.02,48.09,-8.03,-6.39,3
1160059,0.98,-0.02,0.11,1.49,-1.03,-0.01,48.09,-8.03,-6.39,3
1160070,0.98,-0.02,0.1,1.5,-0.07,-0.01,48.09,-8.03,-6.39,3
1160083,0.98,-0.02,0.1,1.57,-0.0,0.07,48.1,-7.98,-6.4,3
1160094,0.99,-0.02,0.1,1.56,-0.46,0.07,48.1,-7.98,-6.4,3
1160104,0.99,-0.02,0.09,1.55,-0.91,0.02,48.1,-7.98,-6.4,3
1160117,0.99,-0.02,0.09,1.6,-2.4,0.01,48.1,-7.98,-6.4,3
1160128,0.99,-0.02,0.09,1.62,-3.42,0.01,48.07,-7.94,-6.32,3
1160139,0.98,-0.03,0.1,1.33,-4.0,-0.04,48.07,-7.94,-6.32,3
1160150,0.97,-0.03,0.11,-3.05,0.66,-0.69,48.07,-7.94,-6.32,3
1160161,0.97,-0.03,0.11,-4.46,3.84,-0.88,48.07,-7.94,-6.32,3
1160171,0.98,-0.02,0.1,-4.33,5.84,-0.82,48.07,-7.94,-6.32,3
1160182,0.98,-0.02,0.1,-3.55,6.36,-0.66,48.15,-7.96,-6.21,3
1160193,0.99,-0.02,0.09,-1.57,4.2,-0.4,48.15,-7.96,-6.21,3
1160204,0.99,-0.02,0.09,-0.91,3.1,-0.31,48.15,-7.96,-6.21,3
1160214,0.98,-0.02,0.09,-0.34,2.31,-0.2,48.15,-7.96,-6.21,3
1160225,0.98,-0.02,0.09,0.12,2.01,-0.12,48.15,-7.96,-6.21,3
1160239,0.98,-0.02,0.09,0.72,1.73,-0.02,48.13,-7.95,-6.22,3
1160249,0.99,-0.02,0.09,0.94,1.19,-0.0,48.13,-7.95,-6.22,3
1160259,0.99,-0.02,0.09,1.09,0.31,-0.0,48.13,-7.95,-6.22,3
1160269,0.99,-0.02,0.09,1.24,-0.57,0.02,48.13,-7.95,-6.22,3
1160282,0.98,-0.02,0.09,1.43,-0.99,0.05,48.1,-7.92,-5.93,3
1160292,0.98,-0.02,0.09,1.46,-0.65,0.04,48.1,-7.92,-5.93,3
1160304,0.98,-0.02,0.09,1.5,-0.64,0.03,48.1,-7.92,-5.93,3
1160316,0.99,-0.03,0.08,1.59,-0.89,0.05,48.1,-7.92,-5.93,3
1160326,0.98,-0.03,0.08,1.66,-1.37,0.08,48.1,-7.92,-5.93,3
1160337,0.98,-0.03,0.09,1.76,-1.66,0.12,48.16,-7.9,-5.69,3
1160349,0.98,-0.02,0.09,2.75,-1.2,0.28,48.16,-7.9,-5.69,3
1160360,0.98,-0.02,0.09,2.61,-1.65,0.25,48.16,-7.9,-5.69,3
1160373,0.98,-0.02,0.09,2.21,-2.24,0.15,48.16,-7.9,-5.69,3
1160385,0.98,-0.02,0.1,2.1,-2.3,0.09,48.31,-7.93,-5.84,3
1160397,0.98,-0.02,0.09,2.0,-1.89,0.07,48.31,-7.93,-5.84,3
1160409,0.98,-0.02,0.09,1.86,-0.89,0.01,48.31,-7.93,-5.84,3
1160421,0.98,-0.02,0.09,1.82,-0.52,0.03,48.31,-7.93,-5.84,3
1160432,0.98,-0.02,0.09,1.79,-0.36,0.04,48.33,-7.92,-5.72,3
1160444,0.99,-0.02,0.09,1.72,-0.69,0.0,48.33,-7.92,-5.72,3
1160456,0.98,-0.02,0.09,1.68,-1.05,-0.01,48.33,-7.92,-5.72,3
1160469,0.98,-0.02,0.09,1.64,-1.35,0.01,48.33,-7.92,-5.72,3
1160480,0.98,-0.02,0.09,1.63,-1.01,-0.03,48.34,-7.94,-5.81,3
1160493,0.98,-0.02,0.09,1.61,0.22,-0.02,48.34,-7.94,-5.81,3
1160504,0.98,-0.02,0.09,1.61,0.71,0.01,48.34,-7.94,-5.81,3
1160516,0.98,-0.02,0.09,1.61,0.99,0.02,48.34,-7.94,-5.81,3
1160526,0.98,-0.02,0.09,1.62,1.13,0.03,48.34,-7.94,-5.81,3
1160539,0.98,-0.02,0.09,1.68,1.2,0.08,48.43,-8.04,-5.88,3
1160549,0.99,-0.02,0.09,1.62,1.04,0.06,48.43,-8.04,-5.88,3
1160559,0.99,-0.02,0.08,1.61,0.62,0.05,48.43,-8.04,-5.88,3
1160569,0.99,-0.02,0.08,1.65,0.14,0.04,48.43,-8.04,-5.88,3
1160581,0.99,-0.02,0.09,1.7,-0.64,0.09,48.44,-7.99,-5.55,3
1160592,0.99,-0.02,0.09,1.68,-0.93,0.09,48.44,-7.99,-5.55,3
1160602,0.98,-0.02,0.09,1.6,-1.1,0.07,48.44,-7.99,-5.55,3
1160615,0.98,-0.02,0.09,1.63,-1.16,0.04,48.44,-7.99,-5.55,3
1160628,0.98,-0.02,0.09,1.61,-0.73,0.0,48.44,-7.85,-5.48,3
1160639,0.98,-0.02,0.09,1.59,0.88,-0.03,48.44,-7.85,-5.48,3
1160650,0.98,-0.02,0.09,1.58,1.64,-0.05,48.44,-7.85,-5.48,3
1160662,0.98,-0.02,0.09,1.57,2.26,-0.05,48.44,-7.85,-5.48,3
1160676,0.99,-0.02,0.08,1.6,1.98,-0.03,48.41,-7.81,-5.43,3
1160687,0.99,-0.02,0.08,1.62,1.09,-0.01,48.41,-7.81,-5.43,3
1160699,0.99,-0.02,0.08,1.62,-0.17,-0.02,48.41,-7.81,-5.43,3
1160710,0.98,-0.02,0.09,1.6,0.18,0.0,48.41,-7.81,-5.43,3
1160722,0.98,-0.02,0.09,1.62,0.99,0.0,48.41,-7.81,-5.43,3
1160735,0.98,-0.02,0.08,1.65,2.69,0.02,48.42,-7.86,-5.38,3
1160747,0.99,-0.02,0.08,1.62,3.07,0.01,48.42,-7.86,-5.38,3
1160757,0.99,-0.02,0.08,1.59,2.96,0.0,48.42,-7.86,-5.38,3
1160767,0.99,-0.02,0.08,1.6,2.47,0.03,48.42,-7.86,-5.38,3
1160779,0.99,-0.02,0.08,1.63,1.09,0.0,48.39,-7.93,-5.41,3
1160791,0.99,-0.02,0.08,1.63,0.55,0.0,48.39,-7.93,-5.41,3
1160804,0.98,-0.02,0.08,1.6,0.6,-0.03,48.39,-7.93,-5.41,3
1160815,0.98,-0.02,0.08,1.62,1.21,-0.03,48.39,-7.93,-5.41,3
1160825,0.98,-0.02,0.08,1.68,1.9,0.01,48.39,-7.93,-5.41,3
1160837,0.99,-0.02,0.07,2.43,2.81,0.15,48.36,-7.83,-5.45,3
1160848,0.99,-0.02,0.07,2.34,2.51,0.11,48.36,-7.83,-5.45,3
1160858,0.99,-0.02,0.07,2.42,2.01,0.13,48.36,-7.83,-5.45,3
1160868,0.99,-0.02,0.07,2.61,1.45,0.18,48.36,-7.83,-5.45,3
1160880,0.98,-0.02,0.08,2.91,1.0,0.25,48.25,-7.87,-5.28,3
1160891,0.98,-0.02,0.08,2.66,1.37,0.19,48.25,-7.87,-5.28,3
1160901,0.98,-0.02,0.07,2.38,1.82,0.11,48.25,-7.87,-5.28,3
1160911,0.99,-0.02,0.07,2.23,2.2,0.11,48.25,-7.87,-5.28,3
1160921,0.99,-0.03,0.07,2.31,2.32,0.13,48.25,-7.87,-5.28,3
1160934,0.99,-0.02,0.06,4.77,1.13,0.39,48.32,-7.79,-4.99,3
1160944,0.99,-0.03,0.05,8.44,0.37,0.79,48.32,-7.79,-4.99,3
1160954,0.98,-0.02,0.04,13.16,-0.06,1.31,48.32,-7.79,-4.99,3
1160967,0.98,-0.02,0.06,18.78,-0.04,2.0,48.32,-7.79,-4.99,3
1160978,0.99,-0.02,0.09,20.21,-0.37,2.18,48.4,-7.78,-4.89,3
1160989,0.99,-0.03,0.09,20.83,-0.41,2.23,48.4,-7.78,-4.89,3
1161000,0.99,-0.02,0.1,17.45,1.26,1.93,48.4,-7.78,-4.89,3
1161011,0.99,-0.02,0.09,14.87,3.19,1.56,48.4,-7.78,-4.89,3
1161022,0.99,-0.02,0.08,12.91,4.68,1.28,48.4,-7.78,-4.89,3
1161036,0.99,-0.02,0.07,9.93,4.78,0.92,48.44,-7.73,-4.96,3
1161047,0.99,-0.02,0.07,8.7,3.93,0.78,48.44,-7.73,-4.96,3
1161060,0.99,-0.02,0.07,5.91,2.73,0.48,48.44,-7.73,-4.96,3
1161071,0.99,-0.02,0.07,4.95,2.64,0.4,48.44,-7.73,-4.96,3
1161082,0.99,-0.02,0.06,4.22,2.93,0.32,48.42,-7.61,-5.14,3
1161092,0.99,-0.02,0.06,3.67,3.25,0.24,48.42,-7.61,-5.14,3
1161102,0.99,-0.02,0.06,3.18,3.41,0.16,48.42,-7.61,-5.14,3
1161114,0.99,-0.02,0.06,2.56,3.09,0.14,48.42,-7.61,-5.14,3
1161126,0.99,-0.02,0.06,2.4,2.81,0.13,48.48,-7.61,-5.21,3
1161137,0.99,-0.02,0.06,2.1,3.08,0.08,48.48,-7.61,-5.21,3
1161148,0.98,-0.02,0.06,1.99,3.69,0.08,48.48,-7.61,-5.21,3
1161160,0.99,-0.02,0.06,1.89,4.35,0.1,48.48,-7.61,-5.21,3
1161170,0.99,-0.02,0.05,1.79,4.81,0.08,48.48,-7.61,-5.21,3
1161183,0.99,-0.02,0.05,1.71,4.6,0.01,48.5,-7.53,-5.42,3
1161194,0.99,-0.02,0.04,1.66,3.83,-0.0,48.5,-7.53,-5.42,3
1161208,0.99,-0.02,0.05,1.6,1.9,-0.05,48.5,-7.53,-5.42,3
1161219,0.99,-0.02,0.05,1.59,1.16,-0.04,48.5,-7.53,-5.42,3
1161232,0.99,-0.02,0.05,1.6,0.87,-0.03,48.43,-7.49,-5.22,3
1161243,0.99,-0.02,0.05,1.57,1.08,-0.03,48.43,-7.49,-5.22,3
1161253,0.99,-0.02,0.05,1.58,1.17,-0.01,48.43,-7.49,-5.22,3
1161264,0.99,-0.02,0.04,1.58,0.86,0.02,48.43,-7.49,-5.22,3
1161277,0.99,-0.02,0.04,1.56,-1.0,0.02,48.39,-7.53,-5.34,3
1161289,0.99,-0.02,0.04,1.59,-1.9,0.06,48.39,-7.53,-5.34,3
1161303,0.99,-0.02,0.05,1.57,-2.43,0.04,48.39,-7.53,-5.34,3
1161315,0.99,-0.02,0.05,1.57,-2.25,0.02,48.39,-7.53,-5.34,3
1161326,0.99,-0.02,0.05,1.57,-2.15,-0.0,48.23,-7.6,-5.28,3
1161337,0.99,-0.02,0.05,1.59,-2.27,0.04,48.23,-7.6,-5.28,3
1161349,0.99,-0.02,0.05,1.56,-2.59,0.02,48.23,-7.6,-5.28,3
1161359,0.99,-0.02,0.05,1.61,-2.7,0.04,48.23,-7.6,-5.28,3
1161371,0.99,-0.02,0.05,1.72,-2.41,0.1,48.23,-7.6,-5.28,3
1161382,0.99,-0.02,0.05,1.76,-2.31,0.1,48.23,-7.62,-5.09,3
1161394,0.99,-0.02,0.05,1.72,-2.42,0.07,48.23,-7.62,-5.09,3
1161406,0.99,-0.02,0.05,1.65,-3.6,0.05,48.23,-7.62,-5.09,3
1161418,0.99,-0.02,0.05,1.66,-4.21,0.07,48.23,-7.62,-5.09,3
1161431,0.99,-0.02,0.06,1.64,-3.82,0.09,48.2,-7.59,-5.08,3
1161441,0.99,-0.02,0.05,1.66,-3.18,0.07,48.2,-7.59,-5.08,3
1161451,0.99,-0.02,0.05,1.62,-2.83,0.03,48.2,-7.59,-5.08,3
1161461,0.99,-0.02,0.05,1.62,-3.0,0.01,48.2,-7.59,-5.08,3
1161471,0.99,-0.02,0.05,1.61,-3.59,0.02,48.2,-7.59,-5.08,3
1161484,0.99,-0.02,0.06,1.61,-4.7,0.02,48.22,-7.76,-5.06,3
1161494,0.98,-0.02,0.06,1.65,-4.52,0.06,48.22,-7.76,-5.06,3
1161506,0.98,-0.02,0.06,1.61,-2.58,0.04,48.22,-7.76,-5.06,3
1161518,0.98,-0.02,0.06,1.62,-1.24,0.04,48.22,-7.76,-5.06,3
1161529,0.98,-0.02,0.06,1.62,-0.06,0.06,48.22,-7.75,-5.21,3
1161542,0.99,-0.02,0.05,1.62,1.01,0.07,48.22,-7.75,-5.21,3
1161554,0.99,-0.02,0.05,1.6,0.95,0.07,48.22,-7.75,-5.21,3
1161567,0.99,-0.02,0.05,1.63,-0.12,0.04,48.22,-7.75,-5.21,3
1161579,0.99,-0.02,0.05,1.65,-0.66,0.04,48.22,-7.67,-5.28,3
1161589,0.99,-0.02,0.06,1.62,-0.92,0.05,48.22,-7.67,-5.28,3
1161599,0.99,-0.02,0.06,1.61,-0.84,0.05,48.22,-7.67,-5.28,3
1161610,0.99,-0.02,0.06,1.63,-0.39,0.09,48.22,-7.67,-5.28,3
1161621,0.99,-0.02,0.05,1.63,-0.43,0.1,48.22,-7.67,-5.28,3
1161632,0.99,-0.02,0.05,1.62,-0.72,0.08,48.21,-7.73,-5.4,3
1161642,0.99,-0.02,0.05,1.63,-1.22,0.06,48.21,-7.73,-5.4,3
1161653,0.99,-0.02,0.05,1.6,-1.63,0.02,48.21,-7.73,-5.4,3
1161664,0.99,-0.02,0.06,1.59,-1.41,0.01,48.21,-7.73,-5.4,3
1161674,0.99,-0.02,0.06,1.57,-1.0,0.01,48.21,-7.73,-5.4,3
1161685,0.99,-0.02,0.06,1.58,-0.46,0.02,48.22,-7.71,-5.23,3
1161696,0.99,-0.02,0.06,1.55,0.89,-0.01,48.22,-7.71,-5.23,3
1161707,0.98,-0.02,0.06,1.56,1.45,0.0,48.22,-7.71,-5.23,3
1161717,0.99,-0.02,0.06,1.59,1.96,0.0,48.22,-7.71,-5.23,3
1161728,0.99,-0.02,0.06,1.58,2.51,0.0,48.21,-7.71,-5.42,3
1161739,0.99,-0.02,0.05,1.62,3.36,-0.04,48.21,-7.71,-5.42,3
1161750,0.99,-0.02,0.05,1.63,3.44,-0.03,48.21,-7.71,-5.42,3
1161760,0.99,-0.02,0.04,1.66,3.06,0.0,48.21,-7.71,-5.42,3
1161770,0.99,-0.02,0.04,1.68,2.16,0.02,48.21,-7.71,-5.42,3
1161782,0.99,-0.02,0.04,1.67,-0.65,0.02,48.25,-7.8,-5.5,3
1161793,0.99,-0.02,0.04,1.65,-2.41,-0.0,48.25,-7.8,-5.5,3
1161804,0.99,-0.02,0.04,1.6,-4.22,-0.0,48.25,-7.8,-5.5,3
1161816,0.99,-0.02,0.04,1.64,-6.91,0.01,48.25,-7.8,-5.5,3
1161828,0.99,-0.02,0.05,1.64,-7.19,-0.01,48.19,-7.79,-5.2,3
1161839,0.99,-0.02,0.06,1.63,-7.03,0.02,48.19,-7.79,-5.2,3
1161852,0.99,-0.02,0.06,1.6,-6.13,0.02,48.19,-7.79,-5.2,3
1161862,0.99,-0.02,0.06,1.6,-5.81,0.03,48.19,-7.79,-5.2,3
1161872,0.99,-0.02,0.06,1.59,-5.61,0.05,48.19,-7.79,-5.2,3
1161883,0.99,-0.03,0.06,1.62,-5.44,0.04,48.2,-7.7,-5.21,3
1161895,0.98,-0.04,0.07,1.45,-4.85,0.03,48.2,-7.7,-5.21,3
1161905,0.98,-0.03,0.07,1.38,-4.05,-0.01,48.2,-7.7,-5.21,3
1161916,0.98,-0.03,0.07,1.21,-3.04,-0.03,48.2,-7.7,-5.21,3
1161930,0.98,-0.01,0.06,1.27,-1.34,-0.03,48.21,-7.68,-5.4,3
1161940,0.98,-0.02,0.06,1.38,-0.83,0.0,48.21,-7.68,-5.4,3
1161950,0.98,-0.02,0.07,1.44,-0.23,0.0,48.21,-7.68,-5.4,3
1161963,0.98,-0.02,0.07,1.49,2.36,0.0,48.21,-7.68,-5.4,3
1161976,0.98,-0.02,0.07,1.53,4.07,-0.01,48.29,-7.59,-5.48,3
1161990,0.99,-0.02,0.06,1.52,6.73,-0.01,48.29,-7.59,-5.48,3
1162000,0.99,-0.0,0.05,1.54,6.93,-0.02,48.29,-7.59,-5.48,3
1162010,0.99,-0.01,0.04,1.71,6.13,0.01,48.29,-7.59,-5.48,3
1162020,0.99,-0.01,0.04,1.9,4.34,0.05,48.29,-7.59,-5.48,3
1162033,0.99,-0.02,0.05,2.29,0.48,0.11,48.27,-7.62,-5.45,3
1162044,0.99,-0.03,0.05,2.34,-0.43,0.13,48.27,-7.62,-5.45,3
1162058,0.99,-0.03,0.05,2.09,0.24,0.07,48.27,-7.62,-5.45,3
1162068,0.99,-0.03,0.05,2.02,0.54,0.07,48.27,-7.62,-5.45,3
1162079,0.99,-0.03,0.04,1.95,0.1,0.04,48.28,-7.55,-5.51,3
1162089,0.99,-0.03,0.04,1.87,-1.0,0.03,48.28,-7.55,-5.51,3
1162101,0.99,-0.02,0.05,1.75,-3.11,0.05,48.28,-7.55,-5.51,3
1162111,0.98,-0.02,0.05,1.72,-3.33,0.06,48.28,-7.55,-5.51,3
1162121,0.98,-0.02,0.06,1.69,-2.95,0.08,48.28,-7.55,-5.51,3
1162132,0.98,-0.02,0.06,1.66,-2.2,0.06,48.18,-7.53,-5.3,3
1162144,0.99,-0.02,0.05,1.59,-0.82,0.03,48.18,-7.53,-5.3,3
1162154,0.99,-0.02,0.05,1.6,-0.45,0.01,48.18,-7.53,-5.3,3
1162165,0.99,-0.02,0.05,1.63,-0.3,0.01,48.18,-7.53,-5.3,3
1162178,0.99,-0.01,0.04,1.71,-0.91,-0.0,48.12,-7.47,-5.24,3
1162189,0.99,-0.02,0.05,1.69,-1.9,-0.0,48.12,-7.47,-5.24,3
1162201,0.99,-0.01,0.05,1.62,-2.95,-0.06,48.12,-7.47,-5.24,3
1162213,0.99,-0.02,0.05,1.53,-3.55,-0.02,48.12,-7.47,-5.24,3
1162223,0.99,-0.03,0.05,1.49,-3.38,-0.03,48.12,-7.47,-5.24,3
1162234,0.99,-0.03,0.06,1.49,-3.22,-0.04,48.19,-7.47,-5.16,3
1162245,0.99,-0.03,0.06,1.55,-2.98,-0.01,48.19,-7.47,-5.16,3
1162256,0.99,-0.03,0.05,1.56,-2.97,0.01,48.19,-7.47,-5.16,3
1162268,0.99,-0.03,0.05,1.59,-3.04,0.03,48.19,-7.47,-5.16,3
1162280,0.99,-0.02,0.06,1.61,-3.22,0.01,48.17,-7.39,-5.12,3
1162291,0.99,-0.02,0.06,1.6,-3.1,0.04,48.17,-7.39,-5.12,3
1162301,0.99,-0.02,0.06,1.61,-2.8,0.02,48.17,-7.39,-5.12,3
1162311,0.99,-0.02,0.06,1.62,-2.37,0.02,48.17,-7.39,-5.12,3
1162325,0.99,-0.02,0.06,1.66,-1.47,0.05,48.04,-7.45,-4.93,3
1162337,0.99,-0.02,0.06,1.64,-1.28,0.05,48.04,-7.45,-4.93,3
1162350,0.99,-0.02,0.06,1.61,-1.3,0.04,48.04,-7.45,-4.93,3
1162362,0.99,-0.02,0.06,1.62,-1.47,0.03,48.04,-7.45,-4.93,3
1162377,0.98,-0.02,0.06,1.61,-1.68,0.03,48.04,-7.47,-5.0,3
1162387,0.98,-0.02,0.06,1.63,-1.43,0.02,48.04,-7.47,-5.0,3
1162397,0.98,-0.02,0.06,1.64,-0.9,0.01,48.04,-7.47,-5.0,3
1162407,0.99,-0.02,0.06,1.63,-0.34,0.02,48.04,-7.47,-5.0,3
1162419,0.99,-0.02,0.06,1.66,0.1,0.05,48.04,-7.47,-5.0,3
1162430,0.99,-0.02,0.06,1.63,0.09,0.06,48.1,-7.55,-5.09,3
1162440,0.99,-0.02,0.06,1.6,0.08,0.04,48.1,-7.55,-5.09,3
1162450,0.99,-0.02,0.06,1.6,0.16,0.0,48.1,-7.55,-5.09,3
1162462,0.99,-0.02,0.06,1.64,0.48,-0.01,48.1,-7.55,-5.09,3
1162472,0.99,-0.02,0.06,1.63,0.55,0.01,48.1,-7.55,-5.09,3
1162483,0.99,-0.02,0.05,1.62,0.48,-0.01,48.12,-7.58,-5.18,3
1162493,0.99,-0.02,0.05,1.64,0.32,-0.03,48.12,-7.58,-5.18,3
1162505,0.99,-0.02,0.05,1.62,-0.15,-0.02,48.12,-7.58,-5.18,3
1162517,0.99,-0.02,0.06,1.65,-0.35,0.01,48.12,-7.58,-5.18,3
1162529,0.99,-0.02,0.06,1.66,0.02,0.02,48.2,-7.46,-5.18,3
1162540,0.99,-0.02,0.06,1.63,0.48,0.03,48.2,-7.46,-5.18,3
1162551,0.99,-0.02,0.06,1.58,0.91,0.02,48.2,-7.46,-5.18,3
1162565,0.99,-0.02,0.05,1.59,1.38,0.05,48.2,-7.46,-5.18,3
1162576,0.99,-0.02,0.05,1.59,1.36,0.06,48.19,-7.56,-5.22,3
1162586,0.99,-0.02,0.05,1.59,1.06,0.08,48.19,-7.56,-5.22,3
1162599,0.99,-0.02,0.05,1.6,-0.19,0.04,48.19,-7.56,-5.22,3
1162611,0.99,-0.02,0.05,1.6,-0.84,0.05,48.19,-7.56,-5.22,3
1162626,0.99,-0.02,0.05,1.63,-1.06,0.05,48.17,-7.58,-5.12,3
1162636,0.99,-0.02,0.05,1.65,-0.74,0.08,48.17,-7.58,-5.12,3
1162648,0.99,-0.02,0.05,1.63,-0.24,0.06,48.17,-7.58,-5.12,3
1162660,0.99,-0.02,0.05,1.62,-0.32,0.04,48.17,-7.58,-5.12,3
1162671,0.99,-0.02,0.05,1.61,-0.61,0.03,48.17,-7.58,-5.12,3
1162685,0.99,-0.02,0.05,1.66,-1.5,0.07,48.13,-7.66,-5.26,3
1162695,0.99,-0.02,0.05,1.67,-1.91,0.04,48.13,-7.66,-5.26,3
1162705,0.99,-0.02,0.05,1.65,-2.29,0.05,48.13,-7.66,-5.26,3
1162718,0.99,-0.02,0.05,1.6,-2.34,0.07,48.13,-7.66,-5.26,3
1162730,0.98,-0.02,0.06,1.61,-1.66,0.07,48.14,-7.62,-5.24,3
1162740,0.98,-0.02,0.06,1.65,-0.65,0.08,48.14,-7.62,-5.24,3
1162753,0.99,-0.02,0.05,1.67,1.15,0.05,48.14,-7.62,-5.24,3
1162765,0.99,-0.02,0.05,1.64,1.71,0.04,48.14,-7.62,-5.24,3
1162776,0.99,-0.02,0.05,1.6,1.95,0.05,48.11,-7.6,-5.49,3
1162788,0.99,-0.0,0.05,1.61,1.46,0.03,48.11,-7.6,-5.49,3
1162798,0.99,-0.02,0.04,1.75,0.63,0.02,48.11,-7.6,-5.49,3
1162808,0.99,-0.02,0.04,1.85,-0.52,0.04,48.11,-7.6,-5.49,3
1162818,0.99,-0.02,0.05,1.96,-1.47,0.07,48.11,-7.6,-5.49,3
1162831,0.99,-0.02,0.05,2.1,-1.76,0.07,48.19,-7.59,-5.3,3
1162841,0.99,-0.02,0.05,2.04,-1.48,0.07,48.19,-7.59,-5.3,3
1162851,0.99,-0.02,0.04,1.96,-1.58,0.08,48.19,-7.59,-5.3,3
1162863,0.99,-0.02,0.04,1.87,-3.53,0.06,48.19,-7.59,-5.3,3
1162875,0.99,-0.02,0.04,1.88,-5.08,0.03,48.37,-7.65,-5.38,3
1162887,0.99,-0.02,0.05,1.84,-6.45,0.05,48.37,-7.65,-5.38,3
1162898,0.99,-0.02,0.05,1.69,-7.11,-0.01,48.37,-7.65,-5.38,3
1162909,0.98,-0.02,0.06,1.63,-6.33,-0.0,48.37,-7.65,-5.38,3
1162921,0.98,-0.03,0.06,1.56,-5.23,0.02,48.37,-7.65,-5.38,3
1162934,0.99,-0.02,0.06,1.53,-3.86,0.04,48.49,-7.75,-5.67,3
1162944,0.99,-0.02,0.05,1.54,-4.03,-0.01,48.49,-7.75,-5.67,3
1162954,0.99,-0.02,0.05,1.55,-4.91,-0.04,48.49,-7.75,-5.67,3
1162967,0.99,-0.02,0.05,1.6,-7.62,-0.03,48.49,-7.75,-5.67,3
1162979,0.99,-0.02,0.07,1.63,-8.38,-0.01,48.5,-7.65,-5.6,3
1162991,0.98,-0.02,0.08,1.64,-8.14,0.02,48.5,-7.65,-5.6,3
1163003,0.98,-0.02,0.08,1.61,-5.21,0.0,48.5,-7.65,-5.6,3
1163013,0.98,-0.02,0.08,1.59,-2.89,0.01,48.5,-7.65,-5.6,3
1163024,0.98,-0.02,0.08,1.58,-0.51,0.02,48.53,-7.58,-5.87,3
1163034,0.98,-0.02,0.07,1.59,1.44,0.03,48.53,-7.58,-5.87,3
1163046,0.99,-0.02,0.07,1.58,3.62,-0.02,48.53,-7.58,-5.87,3
1163056,0.99,-0.02,0.06,1.58,3.85,-0.04,48.53,-7.58,-5.87,3
1163066,0.99,-0.02,0.06,1.62,3.9,-0.03,48.53,-7.58,-5.87,3
1163078,0.99,-0.02,0.06,1.63,4.16,0.02,48.51,-7.57,-5.87,3
1163089,0.99,-0.02,0.06,1.6,4.51,0.03,48.51,-7.57,-5.87,3
1163099,0.99,-0.02,0.06,1.59,4.97,-0.01,48.51,-7.57,-5.87,3
1163109,0.99,-0.02,0.06,1.57,5.34,0.01,48.51,-7.57,-5.87,3
1163119,0.99,-0.02,0.06,1.59,5.63,0.02,48.51,-7.57,-5.87,3
1163132,0.99,-0.02,0.05,1.61,5.81,-0.01,48.49,-7.51,-5.77,3
1163142,0.99,-0.02,0.05,1.59,5.81,-0.02,48.49,-7.51,-5.77,3
1163153,0.99,-0.02,0.05,1.55,5.63,-0.02,48.49,-7.51,-5.77,3
1163165,0.99,-0.03,0.05,1.63,4.57,0.07,48.49,-7.51,-5.77,3
1163176,0.99,-0.02,0.05,2.18,3.4,0.15,48.56,-7.49,-5.65,3
1163188,0.99,-0.02,0.05,2.97,1.88,0.25,48.56,-7.49,-5.65,3
1163200,0.99,-0.02,0.04,2.59,0.87,0.15,48.56,-7.49,-5.65,3
1163212,0.99,-0.02,0.04,2.35,0.71,0.11,48.56,-7.49,-5.65,3
1163223,0.99,-0.02,0.04,2.2,0.4,0.11,48.46,-7.58,-5.56,3
1163235,0.99,-0.02,0.05,1.93,0.47,0.1,48.46,-7.58,-5.56,3
1163245,0.99,-0.02,0.05,1.84,1.24,0.04,48.46,-7.58,-5.56,3
1163255,0.99,-0.02,0.04,1.8,1.72,0.0,48.46,-7.58,-5.56,3
1163265,0.99,-0.02,0.04,1.77,1.44,0.02,48.46,-7.58,-5.56,3
1163278,1.0,-0.02,0.03,1.73,-1.56,-0.0,48.3,-7.45,-5.69,3
1163289,0.99,-0.02,0.03,1.73,-3.8,-0.02,48.3,-7.45,-5.69,3
1163300,0.99,-0.02,0.04,1.7,-5.88,-0.05,48.3,-7.45,-5.69,3
1163312,0.99,-0.02,0.04,1.69,-8.62,-0.06,48.3,-7.45,-5.69,3
1163323,0.99,-0.02,0.05,1.69,-9.27,-0.02,48.26,-7.43,-5.43,3
1163336,0.99,-0.02,0.05,1.7,-9.44,-0.02,48.26,-7.43,-5.43,3
1163347,0.99,-0.02,0.05,1.66,-9.24,-0.09,48.26,-7.43,-5.43,3
1163359,0.99,-0.02,0.06,1.67,-9.1,-0.08,48.26,-7.43,-5.43,3
1163370,0.99,-0.02,0.06,1.71,-9.28,-0.04,48.26,-7.43,-5.43,3
1163382,0.99,-0.02,0.06,1.73,-9.59,-0.03,48.19,-7.35,-5.45,3
1163393,0.98,-0.02,0.06,1.7,-9.62,-0.07,48.19,-7.35,-5.45,3
1163406,0.98,-0.02,0.08,1.69,-7.98,-0.08,48.19,-7.35,-5.45,3
1163418,0.98,-0.02,0.08,1.68,-6.33,-0.07,48.19,-7.35,-5.45,3
1163430,0.98,-0.02,0.07,1.69,-3.49,-0.02,48.21,-7.32,-5.63,3
1163441,0.99,-0.02,0.06,1.64,-3.31,-0.01,48.21,-7.32,-5.63,3
1163452,0.99,-0.02,0.06,1.63,-3.87,0.0,48.21,-7.32,-5.63,3
1163464,0.99,-0.02,0.07,1.66,-4.42,0.03,48.21,-7.32,-5.63,3
1163476,0.98,-0.02,0.08,1.6,-3.78,0.01,48.23,-7.25,-5.61,3
1163488,0.98,-0.02,0.08,1.58,-2.66,0.03,48.23,-7.25,-5.61,3
1163499,0.98,-0.02,0.08,1.53,-0.32,0.06,48.23,-7.25,-5.61,3
1163510,0.99,-0.02,0.07,1.53,0.28,0.08,48.23,-7.25,-5.61,3
1163523,0.99,-0.02,0.07,1.57,0.34,0.05,48.25,-7.37,-5.52,3
1163535,0.99,-0.02,0.07,1.63,-0.46,0.05,48.25,-7.37,-5.52,3
1163545,0.99,-0.02,0.07,1.62,-0.76,-0.01,48.25,-7.37,-5.52,3
1163555,0.99,-0.02,0.07,1.6,-0.82,-0.0,48.25,-7.37,-5.52,3
1163565,0.98,-0.02,0.07,1.61,-0.47,0.01,48.25,-7.37,-5.52,3
1163578,0.98,-0.02,0.07,1.56,1.28,0.01,48.18,-7.39,-5.61,3
1163588,0.99,-0.02,0.07,1.57,1.89,0.02,48.18,-7.39,-5.61,3
1163598,0.99,-0.02,0.06,1.56,2.1,0.01,48.18,-7.39,-5.61,3
1163608,0.99,-0.02,0.06,1.56,1.87,-0.0,48.18,-7.39,-5.61,3
1163619,0.99,-0.02,0.06,1.62,1.07,0.02,48.18,-7.39,-5.61,3
1163631,0.99,-0.02,0.07,1.63,0.92,0.03,48.14,-7.46,-5.58,3
1163641,0.99,-0.02,0.07,1.59,1.06,0.04,48.14,-7.46,-5.58,3
1163651,0.98,-0.02,0.07,1.56,1.39,0.01,48.14,-7.46,-5.58,3
1163661,0.98,-0.02,0.06,1.57,1.72,0.01,48.14,-7.46,-5.58,3
1163674,0.99,-0.02,0.06,1.6,2.11,0.04,48.13,-7.55,-5.42,3
1163684,0.99,-0.02,0.06,1.61,1.9,0.05,48.13,-7.55,-5.42,3
1163694,0.99,-0.02,0.06,1.6,1.5,0.02,48.13,-7.55,-5.42,3
1163705,0.99,-0.02,0.06,1.59,0.49,0.05,48.13,-7.55,-5.42,3
1163716,0.99,-0.02,0.06,1.57,0.14,0.07,48.13,-7.55,-5.42,3
1163727,0.99,-0.02,0.06,1.6,-0.25,0.07,48.16,-7.51,-5.58,3
1163737,0.99,-0.02,0.06,1.6,-0.75,0.05,48.16,-7.51,-5.58,3
1163748,0.99,-0.02,0.06,1.61,-1.26,0.01,48.16,-7.51,-5.58,3
1163759,0.99,-0.02,0.06,1.62,-0.94,0.04,48.16,-7.51,-5.58,3
1163769,0.99,-0.02,0.06,1.61,-0.41,0.07,48.16,-7.51,-5.58,3
1163780,0.99,-0.02,0.06,1.65,-0.21,0.07,48.22,-7.51,-5.65,3
1163791,0.99,-0.02,0.05,1.65,-1.49,0.08,48.22,-7.51,-5.65,3
1163802,0.99,-0.02,0.06,1.66,-2.55,0.06,48.22,-7.51,-5.65,3
1163813,0.99,-0.02,0.06,1.7,-3.0,0.05,48.22,-7.51,-5.65,3
1163826,0.98,-0.02,0.07,1.69,-1.76,0.04,48.23,-7.48,-5.4,3
1163837,0.99,-0.02,0.06,1.64,-0.72,0.04,48.23,-7.48,-5.4,3
1163847,0.99,-0.02,0.06,1.61,-0.12,0.02,48.23,-7.48,-5.4,3
1163857,0.99,-0.02,0.06,1.61,-0.23,0.03,48.23,-7.48,-5.4,3
1163868,0.99,-0.02,0.06,1.61,-1.21,0.0,48.23,-7.48,-5.4,3
1163880,0.99,-0.02,0.06,1.65,-1.36,0.0,48.28,-7.59,-5.42,3
1163892,0.98,-0.02,0.06,1.63,-1.13,-0.01,48.28,-7.59,-5.42,3
1163904,0.99,-0.02,0.06,1.58,-0.22,-0.03,48.28,-7.59,-5.42,3
1163915,0.99,-0.02,0.06,1.58,0.02,-0.01,48.28,-7.59,-5.42,3
1163927,0.99,-0.02,0.06,1.61,-0.11,-0.01,48.27,-7.58,-5.57,3
1163939,0.99,-0.02,0.06,1.64,-0.66,-0.01,48.27,-7.58,-5.57,3
1163951,0.99,-0.02,0.06,1.65,-0.89,-0.01,48.27,-7.58,-5.57,3
1163965,0.99,-0.02,0.06,1.68,-1.57,-0.01,48.27,-7.58,-5.57,3
1163976,0.99,-0.02,0.06,1.68,-1.89,-0.03,48.29,-7.6,-5.73,3
1163988,0.99,-0.02,0.06,1.66,-2.21,-0.05,48.29,-7.6,-5.73,3
1163999,0.99,-0.02,0.06,1.65,-2.17,-0.06,48.29,-7.6,-5.73,3
1164010,0.98,-0.02,0.06,1.69,-1.87,-0.04,48.29,-7.6,-5.73,3
1164024,0.98,-0.02,0.06,1.65,-0.98,-0.01,48.3,-7.66,-5.74,3
1164034,0.99,-0.02,0.06,1.65,-0.75,0.0,48.3,-7.66,-5.74,3
1164045,0.99,-0.02,0.06,1.58,-0.66,-0.01,48.3,-7.66,-5.74,3
1164056,0.99,-0.02,0.06,1.57,-0.72,0.01,48.3,-7.66,-5.74,3
1164068,0.98,-0.02,0.06,1.62,-0.46,0.02,48.3,-7.66,-5.74,3
1164079,0.98,-0.02,0.06,1.64,0.03,0.01,48.24,-7.68,-5.53,3
1164089,0.98,-0.02,0.06,1.68,0.71,-0.0,48.24,-7.68,-5.53,3
1164099,0.98,-0.02,0.06,1.64,1.47,-0.03,48.24,-7.68,-5.53,3
1164111,0.99,-0.02,0.06,1.59,2.91,0.03,48.24,-7.68,-5.53,3
1164122,0.99,-0.02,0.06,1.58,3.37,0.05,48.16,-7.65,-5.44,3
1164132,0.99,-0.02,0.05,1.61,3.32,0.05,48.16,-7.65,-5.44,3
1164143,0.99,-0.02,0.04,1.61,0.73,0.02,48.16,-7.65,-5.44,3
1164154,0.99,-0.02,0.05,1.66,-1.42,0.03,48.16,-7.65,-5.44,3
1164166,0.99,-0.02,0.05,1.67,-3.31,0.02,48.16,-7.65,-5.44,3
1164179,0.98,-0.02,0.06,1.67,-4.41,0.03,48.13,-7.58,-5.25,3
1164189,0.98,-0.02,0.06,1.65,-3.83,0.04,48.13,-7.58,-5.25,3
1164199,0.98,-0.02,0.06,1.65,-3.02,0.03,48.13,-7.58,-5.25,3
1164209,0.99,-0.02,0.06,1.62,-2.3,0.04,48.13,-7.58,-5.25,3
1164223,0.99,-0.02,0.05,1.66,-2.18,0.04,48.15,-7.57,-5.26,3
1164234,0.99,-0.02,0.05,1.66,-2.85,0.01,48.15,-7.57,-5.26,3
1164244,0.99,-0.02,0.05,1.67,-3.78,-0.03,48.15,-7.57,-5.26,3
1164256,0.99,-0.02,0.06,1.66,-5.43,-0.04,48.15,-7.57,-5.26,3
1164268,0.99,-0.02,0.06,1.67,-5.83,-0.02,48.15,-7.57,-5.26,3
1164280,0.98,-0.02,0.07,1.68,-5.06,-0.03,48.18,-7.51,-5.43,3
1164291,0.98,-0.02,0.07,1.65,-4.1,-0.01,48.18,-7.51,-5.43,3
1164303,0.99,-0.02,0.07,1.64,-3.35,0.01,48.18,-7.51,-5.43,3
1164317,0.99,-0.02,0.06,1.65,-3.9,0.02,48.18,-7.51,-5.43,3
1164328,0.99,-0.02,0.06,1.63,-4.87,-0.0,48.21,-7.48,-5.55,3
1164340,0.99,-0.02,0.06,1.6,-6.66,-0.03,48.21,-7.48,-5.55,3
1164352,0.99,-0.02,0.07,1.59,-7.1,-0.04,48.21,-7.48,-5.55,3
1164363,0.98,-0.02,0.08,1.59,-7.02,-0.06,48.21,-7.48,-5.55,3
1164377,0.98,-0.02,0.08,1.57,-5.72,-0.02,48.19,-7.52,-5.73,3
1164387,0.99,-0.02,0.07,1.62,-5.31,-0.03,48.19,-7.52,-5.73,3
1164399,0.99,-0.02,0.07,1.58,-5.55,-0.07,48.19,-7.52,-5.73,3
1164411,0.99,-0.02,0.07,1.39,-7.28,-0.05,48.19,-7.52,-5.73,3
1164422,0.99,-0.02,0.07,1.42,-8.42,-0.04,48.22,-7.48,-5.76,3
1164435,0.99,-0.02,0.08,1.47,-9.78,-0.02,48.22,-7.48,-5.76,3
1164446,0.98,-0.02,0.09,1.46,-9.78,-0.07,48.22,-7.48,-5.76,3
1164458,0.98,-0.02,0.09,1.41,-9.37,-0.08,48.22,-7.48,-5.76,3
1164469,0.98,-0.02,0.09,0.61,-7.13,-0.18,48.22,-7.48,-5.76,3
1164481,0.98,-0.02,0.1,-0.78,-4.67,-0.3,48.15,-7.48,-5.94,3
1164493,0.98,-0.02,0.09,-1.47,-2.7,-0.42,48.15,-7.48,-5.94,3
1164506,0.98,-0.02,0.09,-0.33,-1.99,-0.26,48.15,-7.48,-5.94,3
1164518,0.98,-0.02,0.09,0.12,-2.1,-0.19,48.15,-7.48,-5.94,3
1164531,0.98,-0.02,0.09,0.66,-1.2,-0.07,48.08,-7.51,-6.13,3
1164542,0.98,-0.02,0.09,0.87,-0.53,-0.07,48.08,-7.51,-6.13,3
1164553,0.98,-0.02,0.09,1.05,0.08,-0.07,48.08,-7.51,-6.13,3
1164564,0.98,-0.02,0.09,1.31,0.88,-0.06,48.08,-7.51,-6.13,3
1164576,0.99,-0.02,0.09,1.37,0.84,-0.08,48.0,-7.5,-6.18,3
1164588,0.99,-0.02,0.08,1.42,0.56,-0.09,48.0,-7.5,-6.18,3
1164600,0.99,-0.02,0.09,1.48,-0.51,-0.06,48.0,-7.5,-6.18,3
1164610,0.98,-0.02,0.09,1.53,-0.68,-0.05,48.0,-7.5,-6.18,3
1164621,0.98,-0.02,0.09,1.56,-0.45,-0.04,47.94,-7.48,-6.38,3
1164632,0.98,-0.02,0.09,1.48,0.13,-0.03,47.94,-7.48,-6.38,3
1164643,0.99,-0.02,0.09,1.45,0.25,-0.06,47.94,-7.48,-6.38,3
1164655,0.99,-0.02,0.09,1.47,0.21,-0.02,47.94,-7.48,-6.38,3
1164669,0.98,-0.02,0.09,1.54,0.08,0.01,47.94,-7.48,-6.38,3
1164680,0.98,-0.02,0.09,1.54,0.17,0.02,47.94,-7.51,-6.59,3
1164690,0.98,-0.02,0.09,1.54,0.42,0.0,47.94,-7.51,-6.59,3
1164700,0.98,-0.02,0.09,1.55,0.74,-0.01,47.94,-7.51,-6.59,3
1164712,0.98,-0.02,0.09,1.61,1.61,-0.01,47.94,-7.51,-6.59,3
1164723,0.98,-0.02,0.09,1.63,2.01,-0.02,47.94,-7.49,-6.6,3
1164735,0.98,-0.02,0.08,1.61,2.69,-0.01,47.94,-7.49,-6.6,3
1164746,0.99,-0.02,0.08,1.6,2.75,-0.04,47.94,-7.49,-6.6,3
1164758,0.99,-0.02,0.08,1.61,2.44,-0.0,47.94,-7.49,-6.6,3
1164773,0.99,-0.02,0.08,1.64,1.56,-0.02,48.04,-7.47,-6.45,3
1164784,0.98,-0.02,0.08,1.66,1.35,-0.01,48.04,-7.47,-6.45,3
1164795,0.98,-0.02,0.08,1.6,1.73,-0.0,48.04,-7.47,-6.45,3
1164807,0.98,-0.02,0.08,1.61,2.21,-0.02,48.04,-7.47,-6.45,3
1164818,0.98,-0.02,0.08,1.61,2.77,0.0,48.04,-7.47,-6.45,3
1164831,0.99,-0.02,0.08,1.59,3.47,0.02,48.04,-7.53,-6.22,3
1164843,0.99,-0.02,0.07,1.6,3.46,-0.02,48.04,-7.53,-6.22,3
1164855,0.99,-0.02,0.07,1.56,2.98,-0.03,48.04,-7.53,-6.22,3
1164866,0.99,-0.02,0.07,1.59,2.59,-0.05,48.04,-7.53,-6.22,3
1164877,0.98,-0.02,0.07,1.62,2.37,-0.05,48.15,-7.61,-6.25,3
1164890,0.98,-0.02,0.07,1.64,3.12,-0.08,48.15,-7.61,-6.25,3
1164901,0.98,-0.02,0.07,1.64,3.84,-0.05,48.15,-7.61,-6.25,3
1164913,0.99,-0.02,0.07,1.63,4.54,-0.01,48.15,-7.61,-6.25,3
1164926,0.99,-0.02,0.06,1.63,5.06,-0.01,48.23,-7.69,-5.96,3
1164938,0.99,-0.02,0.06,1.62,4.55,0.01,48.23,-7.69,-5.96,3
1164948,0.99,-0.02,0.06,1.6,3.58,0.03,48.23,-7.69,-5.96,3
1164959,0.99,-0.02,0.06,1.62,1.01,0.04,48.23,-7.69,-5.96,3
1164971,0.99,-0.02,0.06,1.63,-0.01,0.04,48.23,-7.68,-5.84,3
1164981,0.99,-0.02,0.06,1.64,-0.57,0.05,48.23,-7.68,-5.84,3
1164994,0.99,-0.02,0.06,1.57,-0.54,-0.01,48.23,-7.68,-5.84,3
1165005,0.99,-0.02,0.06,1.6,-0.58,-0.0,48.23,-7.68,-5.84,3
1165015,0.99,-0.02,0.06,1.63,-0.77,0.01,48.23,-7.68,-5.84,3
1165026,0.99,-0.02,0.06,1.63,-1.05,0.02,48.34,-7.62,-5.78,3
1165038,0.99,-0.02,0.06,1.65,-1.73,-0.0,48.34,-7.62,-5.78,3
1165049,0.99,-0.02,0.06,1.65,-2.0,-0.0,48.34,-7.62,-5.78,3
1165060,0.99,-0.02,0.07,1.65,-2.09,0.01,48.34,-7.62,-5.78,3
1165073,0.99,-0.02,0.07,1.66,-1.71,0.03,48.36,-7.53,-5.98,3
1165083,0.99,-0.02,0.07,1.68,-1.33,0.05,48.36,-7.53,-5.98,3
1165093,0.99,-0.02,0.06,1.63,-1.01,0.03,48.36,-7.53,-5.98,3
1165106,0.99,-0.02,0.06,1.62,-1.18,0.02,48.36,-7.53,-5.98,3
1165118,0.99,-0.02,0.06,1.62,-1.49,0.03,48.36,-7.53,-5.98,3
1165130,0.99,-0.02,0.06,1.66,-1.98,0.0,48.48,-7.53,-6.06,3
1165141,0.99,-0.02,0.07,1.67,-2.04,-0.01,48.48,-7.53,-6.06,3
1165153,0.99,-0.02,0.07,1.65,-2.01,-0.02,48.48,-7.53,-6.06,3
1165167,0.99,-0.02,0.06,1.65,-1.93,-0.0,48.48,-7.53,-6.06,3
1165178,0.99,-0.02,0.07,1.64,-2.04,-0.0,48.47,-7.54,-5.64,3
1165191,0.98,-0.02,0.07,1.58,-1.8,-0.04,48.47,-7.54,-5.64,3
1165202,0.98,-0.02,0.07,1.6,-1.26,-0.03,48.47,-7.54,-5.64,3
1165214,0.98,-0.02,0.07,1.58,-0.54,-0.04,48.47,-7.54,-5.64,3
1165227,0.99,-0.02,0.06,1.52,0.31,-0.05,48.4,-7.58,-5.52,3
1165237,0.99,-0.02,0.06,1.51,0.12,-0.04,48.4,-7.58,-5.52,3
1165249,0.99,-0.02,0.06,1.51,-0.46,-0.04,48.4,-7.58,-5.52,3
1165261,0.99,-0.02,0.06,1.56,-1.87,-0.05,48.4,-7.58,-5.52,3
1165272,0.99,-0.02,0.07,1.55,-2.14,-0.09,48.45,-7.64,-5.55,3
1165283,0.98,-0.02,0.07,1.55,-2.11,-0.11,48.45,-7.64,-5.55,3
1165295,0.99,-0.02,0.07,1.54,-1.06,-0.06,48.45,-7.64,-5.55,3
1165306,0.99,-0.02,0.06,1.54,-0.77,-0.03,48.45,-7.64,-5.55,3
1165318,0.99,-0.02,0.06,1.54,-0.92,-0.01,48.45,-7.64,-5.55,3
1165331,0.99,-0.02,0.07,1.58,-1.92,0.0,48.43,-7.62,-5.47,3
1165341,0.99,-0.02,0.07,1.58,-2.21,-0.06,48.43,-7.62,-5.47,3
1165354,0.98,-0.02,0.07,1.6,-1.64,-0.07,48.43,-7.62,-5.47,3
1165365,0.99,-0.02,0.07,1.59,-1.0,-0.05,48.43,-7.62,-5.47,3
1165376,0.99,-0.02,0.07,1.55,-0.52,-0.07,48.38,-7.63,-5.62,3
1165390,0.99,-0.02,0.06,1.56,-0.56,-0.06,48.38,-7.63,-5.62,3
1165401,0.99,-0.02,0.07,1.57,-0.88,-0.06,48.38,-7.63,-5.62,3
1165412,0.99,-0.02,0.07,1.59,-1.16,-0.04,48.38,-7.63,-5.62,3
1165425,0.99,-0.02,0.07,1.56,-1.3,-0.01,48.46,-7.72,-5.7,3
1165437,0.99,-0.02,0.07,1.57,-1.2,-0.02,48.46,-7.72,-5.7,3
1165450,0.99,-0.02,0.07,1.59,-1.02,-0.02,48.46,-7.72,-5.7,3
1165461,0.99,-0.02,0.07,1.6,-0.86,-0.0,48.46,-7.72,-5.7,3
1165472,0.99,-0.02,0.07,1.6,-0.6,-0.0,48.34,-7.69,-5.55,3
1165484,0.99,-0.02,0.06,1.55,-0.45,-0.04,48.34,-7.69,-5.55,3
1165496,0.99,-0.02,0.06,1.55,-0.88,-0.06,48.34,-7.69,-5.55,3
1165510,0.99,-0.02,0.07,1.61,-2.06,-0.02,48.34,-7.69,-5.55,3
1165521,0.99,-0.02,0.07,1.65,-2.32,-0.03,48.18,-7.75,-5.68,3
1165533,0.98,-0.02,0.07,1.69,-2.18,-0.07,48.18,-7.75,-5.68,3
1165545,0.98,-0.02,0.07,1.63,-1.31,-0.05,48.18,-7.75,-5.68,3
1165557,0.98,-0.02,0.07,1.6,-1.0,-0.03,48.18,-7.75,-5.68,3
1165571,0.99,-0.02,0.06,1.58,-1.07,-0.01,48.05,-7.74,-5.63,3
1165583,0.99,-0.02,0.06,1.61,-1.43,-0.01,48.05,-7.74,-5.63,3
1165594,0.99,-0.02,0.06,1.64,-2.38,-0.05,48.05,-7.74,-5.63,3
1165605,0.99,-0.02,0.07,1.64,-2.74,-0.04,48.05,-7.74,-5.63,3
1165617,0.99,-0.02,0.07,1.64,-2.94,-0.03,48.05,-7.74,-5.63,3
1165630,0.99,-0.02,0.07,1.64,-2.65,0.02,48.04,-7.63,-5.49,3
1165642,0.99,-0.02,0.07,1.63,-2.35,0.01,48.04,-7.63,-5.49,3
1165654,0.99,-0.02,0.07,1.64,-2.37,0.01,48.04,-7.63,-5.49,3
1165666,0.99,-0.02,0.07,1.63,-2.61,0.04,48.04,-7.63,-5.49,3
1165677,0.99,-0.02,0.07,1.65,-3.01,0.04,47.99,-7.64,-5.45,3
1165687,0.99,-0.02,0.07,1.69,-3.46,0.02,47.99,-7.64,-5.45,3
1165699,0.99,-0.02,0.07,1.69,-3.78,-0.01,47.99,-7.64,-5.45,3
1165710,0.98,-0.02,0.08,1.68,-3.58,0.03,47.99,-7.64,-5.45,3
1165722,0.98,-0.02,0.07,1.68,-3.21,0.04,47.95,-7.49,-5.51,3
1165734,0.99,-0.02,0.07,1.67,-2.77,0.01,47.95,-7.49,-5.51,3
1165744,0.99,-0.02,0.07,1.61,-2.82,-0.01,47.95,-7.49,-5.51,3
1165754,0.99,-0.02,0.07,1.61,-3.1,0.01,47.95,-7.49,-5.51,3
1165767,0.99,-0.02,0.07,1.64,-3.65,-0.01,47.95,-7.49,-5.51,3
1165778,0.99,-0.02,0.08,1.64,-3.8,-0.01,47.93,-7.51,-5.74,3
1165790,0.98,-0.02,0.08,1.62,-3.82,-0.01,47.93,-7.51,-5.74,3
1165802,0.98,-0.02,0.08,1.58,-3.31,-0.04,47.93,-7.51,-5.74,3
1165814,0.98,-0.02,0.08,1.58,-2.69,-0.05,47.93,-7.51,-5.74,3
1165827,0.98,-0.02,0.08,1.6,-1.51,-0.0,47.89,-7.49,-5.61,3
1165838,0.98,-0.02,0.08,1.6,-1.09,-0.02,47.89,-7.49,-5.61,3
1165849,0.98,-0.02,0.08,1.58,-0.85,-0.03,47.89,-7.49,-5.61,3
1165862,0.98,-0.02,0.08,1.57,-0.65,-0.07,47.89,-7.49,-5.61,3
1165873,0.98,-0.02,0.08,1.52,-0.58,-0.06,47.94,-7.53,-5.82,3
1165884,0.98,-0.02,0.08,1.52,-0.44,-0.05,47.94,-7.53,-5.82,3
1165897,0.98,-0.02,0.08,1.57,0.24,-0.02,47.94,-7.53,-5.82,3
1165907,0.98,-0.02,0.08,1.57,0.66,-0.02,47.94,-7.53,-5.82,3
1165917,0.98,-0.02,0.08,1.62,1.08,-0.03,47.94,-7.53,-5.82,3
1165928,0.98,-0.02,0.08,1.64,1.37,-0.04,47.85,-7.59,-6.0,3
1165940,0.99,-0.02,0.07,1.62,1.63,-0.07,47.85,-7.59,-6.0,3
1165951,0.99,-0.02,0.07,1.61,1.62,-0.07,47.85,-7.59,-6.0,3
1165962,0.99,-0.02,0.07,1.63,1.65,-0.05,47.85,-7.59,-6.0,3
1165975,0.99,-0.02,0.07,1.61,1.76,-0.07,47.96,-7.68,-6.01,3
1165986,0.99,-0.02,0.07,1.62,1.74,-0.07,47.96,-7.68,-6.01,3
1165998,0.99,-0.02,0.07,1.58,1.33,-0.06,47.96,-7.68,-6.01,3
1166009,0.99,-0.02,0.07,1.58,0.97,-0.05,47.96,-7.68,-6.01,3
1166020,0.99,-0.02,0.07,1.58,0.53,-0.04,48.04,-7.66,-6.18,3
1166033,0.99,-0.02,0.07,1.62,-0.34,-0.01,48.04,-7.66,-6.18,3
1166044,0.99,-0.02,0.07,1.59,-0.57,0.02,48.04,-7.66,-6.18,3
1166055,0.99,-0.02,0.07,1.57,-0.68,0.04,48.04,-7.66,-6.18,3
1166067,0.99,-0.02,0.07,1.55,-0.59,0.01,48.04,-7.66,-6.18,3
1166079,0.99,-0.02,0.07,1.59,-0.48,-0.0,48.01,-7.67,-6.06,3
1166089,0.99,-0.02,0.07,1.56,-0.44,-0.02,48.01,-7.67,-6.06,3
1166102,0.99,-0.02,0.07,1.54,-1.06,-0.06,48.01,-7.67,-6.06,3
1166113,0.99,-0.02,0.06,1.59,-1.66,-0.02,48.01,-7.67,-6.06,3
1166124,0.99,-0.02,0.07,1.59,-2.33,-0.01,48.07,-7.66,-6.06,3
1166135,0.99,-0.02,0.07,1.6,-3.1,-0.03,48.07,-7.66,-6.06,3
1166146,0.98,-0.02,0.07,1.6,-3.13,-0.01,48.07,-7.66,-6.06,3
1166158,0.98,-0.02,0.07,1.59,-3.03,-0.02,48.07,-7.66,-6.06,3
1166169,0.98,-0.02,0.07,1.57,-2.89,-0.03,48.06,-7.7,-6.23,3
1166180,0.99,-0.02,0.07,1.6,-2.8,-0.02,48.06,-7.7,-6.23,3
1166192,0.98,-0.02,0.08,1.57,-2.39,-0.03,48.06,-7.7,-6.23,3
1166206,0.99,-0.02,0.07,1.64,-1.43,-0.01,48.06,-7.7,-6.23,3
1166219,0.99,-0.02,0.07,1.64,-1.21,-0.01,48.16,-7.69,-6.36,3
1166230,0.99,-0.02,0.07,1.65,-1.59,-0.04,48.16,-7.69,-6.36,3
1166241,0.99,-0.02,0.07,1.61,-1.92,-0.02,48.16,-7.69,-6.36,3
1166253,0.99,-0.02,0.07,1.6,-2.25,-0.02,48.16,-7.69,-6.36,3
1166264,0.99,-0.02,0.07,1.67,-2.61,-0.02,48.16,-7.69,-6.36,3
1166276,0.98,-0.02,0.08,1.68,-2.5,-0.0,48.2,-7.68,-6.46,3
1166288,0.98,-0.02,0.08,1.64,-2.27,-0.03,48.2,-7.68,-6.46,3
1166300,0.98,-0.02,0.08,1.61,-1.5,-0.05,48.2,-7.68,-6.46,3
1166311,0.98,-0.02,0.08,1.65,-1.01,-0.04,48.2,-7.68,-6.46,3
1166323,0.98,-0.02,0.08,1.63,-0.4,-0.02,48.26,-7.61,-6.36,3
1166335,0.98,-0.02,0.08,1.64,0.95,-0.04,48.26,-7.61,-6.36,3
1166347,0.99,-0.02,0.07,1.64,1.36,-0.07,48.26,-7.61,-6.36,3
1166360,0.99,-0.02,0.07,1.65,1.0,-0.02,48.26,-7.61,-6.36,3
1166371,0.99,-0.02,0.07,1.63,0.52,0.0,48.27,-7.59,-6.13,3
1166384,0.99,-0.02,0.07,1.64,-0.11,0.0,48.27,-7.59,-6.13,3
1166395,0.98,-0.02,0.07,1.65,-0.02,-0.01,48.27,-7.59,-6.13,3
1166407,0.98,-0.02,0.07,1.68,0.28,-0.04,48.27,-7.59,-6.13,3
1166418,0.99,-0.02,0.07,1.67,0.46,-0.04,48.33,-7.68,-6.22,3
1166429,0.99,-0.02,0.07,1.65,0.43,-0.03,48.33,-7.68,-6.22,3
1166441,0.99,-0.02,0.07,1.61,0.05,-0.08,48.33,-7.68,-6.22,3
1166455,0.99,-0.02,0.07,1.62,-0.93,-0.05,48.33,-7.68,-6.22,3
1166467,0.99,-0.02,0.07,1.64,-1.21,-0.01,48.3,-7.68,-6.21,3
1166479,0.98,-0.02,0.07,1.7,-0.92,0.02,48.3,-7.68,-6.21,3
1166490,0.98,-0.02,0.07,1.66,-0.42,0.01,48.3,-7.68,-6.21,3
1166501,0.99,-0.02,0.07,1.69,0.08,0.02,48.3,-7.68,-6.21,3
1166512,0.99,-0.02,0.07,1.67,0.3,0.02,48.3,-7.68,-6.21,3
1166525,0.99,-0.02,0.06,1.66,-0.43,0.04,48.3,-7.58,-6.17,3
1166535,0.99,-0.02,0.06,1.67,-1.35,0.03,48.3,-7.58,-6.17,3
1166547,0.99,-0.02,0.06,1.69,-3.4,0.05,48.3,-7.58,-6.17,3
1166558,0.99,-0.02,0.07,1.68,-4.26,0.05,48.3,-7.58,-6.17,3
1166569,0.99,-0.02,0.07,1.67,-4.9,0.04,48.15,-7.49,-6.19,3
1166583,0.99,-0.02,0.07,1.67,-5.73,0.01,48.15,-7.49,-6.19,3
1166595,0.99,-0.02,0.07,1.65,-6.2,-0.03,48.15,-7.49,-6.19,3
1166607,0.99,-0.02,0.07,1.65,-7.41,0.03,48.15,-7.49,-6.19,3
1166620,0.99,-0.02,0.08,1.64,-7.71,0.02,48.15,-7.58,-6.23,3
1166630,0.98,-0.02,0.08,1.63,-7.65,0.06,48.15,-7.58,-6.23,3
1166643,0.98,-0.02,0.09,1.63,-6.61,0.03,48.15,-7.58,-6.23,3
1166655,0.98,-0.02,0.09,1.62,-5.93,0.03,48.15,-7.58,-6.23,3
1166669,0.98,-0.02,0.09,1.65,-4.71,0.06,48.06,-7.6,-6.3,3
1166680,0.98,-0.02,0.09,1.66,-4.3,0.06,48.06,-7.6,-6.3,3
1166692,0.98,-0.02,0.09,1.62,-3.99,0.02,48.06,-7.6,-6.3,3
1166704,0.98,-0.02,0.09,1.63,-3.77,0.02,48.06,-7.6,-6.3,3
1166717,0.98,-0.02,0.09,1.63,-3.69,0.05,48.0,-7.56,-6.32,3
1166728,0.98,-0.02,0.09,1.65,-3.56,0.05,48.0,-7.56,-6.32,3
1166739,0.98,-0.02,0.09,1.64,-3.37,0.04,48.0,-7.56,-6.32,3
1166751,0.98,-0.02,0.09,1.64,-3.04,0.04,48.0,-7.56,-6.32,3
1166761,0.98,-0.02,0.09,1.59,-2.64,0.05,48.0,-7.56,-6.32,3
1166774,0.98,-0.02,0.09,1.58,-1.88,-0.01,47.92,-7.63,-6.47,3
1166786,0.99,-0.02,0.09,1.57,-1.89,-0.01,47.92,-7.63,-6.47,3
1166798,0.99,-0.02,0.09,1.56,-2.64,-0.03,47.92,-7.63,-6.47,3
1166810,0.99,-0.03,0.09,1.58,-3.28,-0.04,47.92,-7.63,-6.47,3
1166821,0.99,-0.04,0.09,1.47,-4.07,-0.05,47.86,-7.59,-6.47,3
1166833,0.98,-0.02,0.09,0.65,-6.2,-0.25,47.86,-7.59,-6.47,3
1166844,0.98,-0.02,0.09,0.4,-6.5,-0.29,47.86,-7.59,-6.47,3
1166855,0.98,-0.02,0.1,0.6,-6.36,-0.17,47.86,-7.59,-6.47,3
1166868,0.98,-0.02,0.1,0.99,-4.81,-0.06,47.8,-7.61,-6.63,3
1166879,0.98,-0.03,0.11,1.09,-3.52,-0.06,47.8,-7.61,-6.63,3
1166891,0.98,-0.02,0.1,0.95,-1.39,-0.05,47.8,-7.61,-6.63,3
1166902,0.98,-0.02,0.1,1.12,-0.88,-0.03,47.8,-7.61,-6.63,3
1166914,0.98,-0.02,0.09,1.25,-0.85,0.01,47.8,-7.61,-6.63,3
1166927,0.99,-0.02,0.09,1.41,-1.85,0.02,47.81,-7.54,-6.7,3
1166938,0.98,-0.02,0.1,1.45,-2.39,0.04,47.81,-7.54,-6.7,3
1166949,0.98,-0.02,0.1,1.49,-2.59,0.05,47.81,-7.54,-6.7,3
1166961,0.98,-0.02,0.1,1.57,-2.2,-0.02,47.81,-7.54,-6.7,3
1166972,0.98,-0.02,0.1,1.6,-1.69,-0.0,47.78,-7.45,-6.77,3
1166984,0.98,-0.02,0.1,1.64,-1.25,-0.0,47.78,-7.45,-6.77,3
1166996,0.99,-0.02,0.09,1.66,-1.74,-0.02,47.78,-7.45,-6.77,3
1167008,0.99,-0.02,0.1,1.7,-2.47,0.01,47.78,-7.45,-6.77,3
1167020,0.99,-0.02,0.09,1.73,-4.18,0.04,47.93,-7.46,-6.78,3
1167031,0.99,-0.02,0.09,1.74,-5.32,0.06,47.93,-7.46,-6.78,3
1167043,0.99,-0.02,0.1,1.74,-6.56,0.02,47.93,-7.46,-6.78,3
1167054,0.99,-0.02,0.1,1.76,-9.32,0.03,47.93,-7.46,-6.78,3
1167065,0.99,-0.02,0.1,1.78,-10.7,0.03,47.93,-7.46,-6.78,3
1167076,0.99,-0.02,0.1,1.76,-12.0,0.02,47.81,-7.48,-6.5,3
1167088,0.98,-0.02,0.11,1.7,-13.63,0.01,47.81,-7.48,-6.5,3
1167100,0.98,-0.02,0.12,1.68,-13.86,0.01,47.81,-7.48,-6.5,3
1167111,0.98,-0.02,0.12,1.64,-14.02,0.02,47.81,-7.48,-6.5,3
1167124,0.97,-0.02,0.13,1.36,-13.39,-0.03,47.74,-7.42,-6.72,3
1167136,0.97,-0.03,0.13,0.74,-12.09,-0.13,47.74,-7.42,-6.72,3
1167150,0.97,-0.03,0.14,-1.32,-8.06,-0.56,47.74,-7.42,-6.72,3
1167162,0.97,-0.02,0.14,-1.96,-5.81,-0.65,47.74,-7.42,-6.72,3
1167174,0.98,-0.02,0.14,-0.84,-3.87,-0.48,47.74,-7.41,-6.89,3
1167185,0.98,-0.02,0.13,-0.31,-3.46,-0.41,47.74,-7.41,-6.89,3
1167197,0.97,-0.02,0.14,0.13,-3.06,-0.33,47.74,-7.41,-6.89,3
1167211,0.97,-0.02,0.14,0.66,-1.14,-0.19,47.74,-7.41,-6.89,3
1167222,0.97,-0.02,0.14,0.87,0.08,-0.12,47.71,-7.43,-6.9,3
1167236,0.98,-0.02,0.14,1.16,2.43,-0.06,47.71,-7.43,-6.9,3
1167248,0.98,-0.02,0.13,1.28,3.34,-0.02,47.71,-7.43,-6.9,3
1167258,0.98,-0.02,0.13,1.37,4.17,0.01,47.71,-7.43,-6.9,3
1167271,0.98,-0.02,0.12,1.46,5.03,0.03,47.71,-7.4,-6.91,3
1167282,0.98,-0.02,0.12,1.49,4.72,0.02,47.71,-7.4,-6.91,3
1167296,0.98,-0.02,0.11,1.47,2.45,-0.03,47.71,-7.4,-6.91,3
1167308,0.98,-0.02,0.11,1.48,0.94,-0.05,47.71,-7.4,-6.91,3
1167319,0.98,-0.02,0.12,1.52,-0.55,-0.04,47.69,-7.45,-7.08,3
1167330,0.98,-0.02,0.12,1.53,-1.71,-0.03,47.69,-7.45,-7.08,3
1167342,0.98,-0.02,0.13,1.53,-2.34,-0.04,47.69,-7.45,-7.08,3
1167356,0.98,-0.02,0.12,1.54,-2.27,-0.03,47.69,-7.45,-7.08,3
1167367,0.98,-0.02,0.12,1.56,-2.46,-0.02,47.69,-7.45,-7.19,3
1167379,0.98,-0.02,0.12,1.61,-2.89,0.01,47.69,-7.45,-7.19,3
1167391,0.98,-0.02,0.12,1.6,-4.33,-0.02,47.69,-7.45,-7.19,3
1167403,0.98,-0.02,0.13,1.58,-4.78,-0.01,47.69,-7.45,-7.19,3
1167418,0.97,-0.02,0.14,1.55,-3.49,-0.01,47.69,-7.54,-7.28,3
1167429,0.97,-0.02,0.14,1.54,-1.87,0.0,47.69,-7.54,-7.28,3
1167441,0.97,-0.02,0.14,1.54,1.31,-0.01,47.69,-7.54,-7.28,3
1167452,0.98,-0.02,0.13,1.53,2.16,-0.01,47.69,-7.54,-7.28,3
1167462,0.98,-0.02,0.13,1.57,2.53,-0.02,47.69,-7.54,-7.28,3
1167473,0.98,-0.02,0.13,1.59,2.7,-0.02,47.67,-7.54,-7.43,3
1167485,0.98,-0.02,0.12,1.54,2.6,-0.01,47.67,-7.54,-7.43,3
1167496,0.98,-0.02,0.12,1.53,2.2,-0.02,47.67,-7.54,-7.43,3
1167507,0.98,-0.02,0.12,1.58,1.62,-0.02,47.67,-7.54,-7.43,3
1167520,0.98,-0.02,0.12,1.57,0.29,0.02,47.66,-7.52,-7.37,3
1167530,0.98,-0.02,0.12,1.55,-0.31,0.05,47.66,-7.52,-7.37,3
1167541,0.98,-0.02,0.12,1.53,-0.71,0.02,47.66,-7.52,-7.37,3
1167553,0.98,-0.02,0.12,1.56,-1.29,0.01,47.66,-7.52,-7.37,3
1167564,0.98,-0.02,0.12,1.58,-1.42,-0.0,47.66,-7.52,-7.37,3
1167575,0.98,-0.02,0.13,1.57,-1.35,-0.0,47.66,-7.61,-7.37,3
1167589,0.98,-0.02,0.12,1.55,-0.5,-0.01,47.66,-7.61,-7.37,3
1167600,0.98,-0.02,0.12,1.57,-0.24,-0.01,47.66,-7.61,-7.37,3
1167615,0.98,-0.02,0.12,1.59,-0.14,-0.01,47.7,-7.56,-7.26,3
1167627,0.98,-0.02,0.12,1.58,-0.15,-0.02,47.7,-7.56,-7.26,3
1167639,0.98,-0.02,0.12,1.56,0.16,-0.02,47.7,-7.56,-7.26,3
1167651,0.98,-0.02,0.13,1.59,0.65,0.02,47.7,-7.56,-7.26,3
1167664,0.98,-0.02,0.12,1.59,2.05,0.02,47.7,-7.56,-7.26,3
1167676,0.98,-0.02,0.12,1.56,2.5,0.03,47.71,-7.45,-7.19,3
1167686,0.98,-0.02,0.12,1.54,2.73,0.01,47.71,-7.45,-7.19,3
1167696,0.98,-0.02,0.12,1.54,2.56,0.04,47.71,-7.45,-7.19,3
1167707,0.98,-0.02,0.11,1.55,1.43,0.01,47.71,-7.45,-7.19,3
1167719,0.98,-0.02,0.12,1.55,0.95,0.01,47.58,-7.33,-7.29,3
1167729,0.98,-0.02,0.12,1.58,0.78,0.01,47.58,-7.33,-7.29,3
1167739,0.98,-0.02,0.12,1.58,1.04,-0.02,47.58,-7.33,-7.29,3
1167750,0.98,-0.02,0.12,1.56,2.07,-0.01,47.58,-7.33,-7.29,3
1167761,0.98,-0.02,0.12,1.57,2.42,-0.01,47.58,-7.33,-7.29,3
1167772,0.98,-0.02,0.11,1.57,2.55,-0.03,47.52,-7.39,-7.28,3
1167786,0.98,-0.02,0.11,1.54,2.06,-0.05,47.52,-7.39,-7.28,3
1167796,0.98,-0.02,0.11,1.58,1.36,-0.05,47.52,-7.39,-7.28,3
1167806,0.98,-0.02,0.11,1.61,0.48,-0.04,47.52,-7.39,-7.28,3
1167817,0.98,-0.02,0.11,1.62,-0.42,-0.03,47.48,-7.38,-7.24,3
1167829,0.98,-0.02,0.11,1.64,-1.64,0.0,47.48,-7.38,-7.24,3
1167841,0.98,-0.02,0.11,1.58,-1.79,-0.01,47.48,-7.38,-7.24,3
1167854,0.98,-0.02,0.11,1.62,-1.57,0.04,47.48,-7.38,-7.24,3
1167865,0.98,-0.02,0.11,1.62,-1.44,0.06,47.55,-7.4,-7.29,3
1167877,0.98,-0.02,0.12,1.6,-1.3,0.05,47.55,-7.4,-7.29,3
1167889,0.98,-0.02,0.12,1.56,-0.44,-0.02,47.55,-7.4,-7.29,3
1167901,0.98,-0.02,0.11,1.57,0.08,-0.0,47.55,-7.4,-7.29,3
1167916,0.98,-0.02,0.11,1.59,0.68,-0.0,47.56,-7.4,-7.15,3
1167927,0.98,-0.02,0.11,1.57,0.82,0.03,47.56,-7.4,-7.15,3
1167938,0.98,-0.02,0.11,1.63,0.54,0.07,47.56,-7.4,-7.15,3
1167949,0.98,-0.02,0.11,1.62,0.25,0.09,47.56,-7.4,-7.15,3
1167961,0.98,-0.02,0.11,1.64,-0.08,0.13,47.56,-7.4,-7.15,3
1167974,0.98,-0.02,0.11,1.64,-0.49,0.1,47.67,-7.33,-7.18,3
1167986,0.98,-0.02,0.11,1.64,-0.51,0.08,47.67,-7.33,-7.18,3
1167998,0.98,-0.02,0.11,1.67,-0.74,0.04,47.67,-7.33,-7.18,3
1168010,0.98,-0.02,0.11,1.65,-0.98,0.03,47.67,-7.33,-7.18,3
1168021,0.98,-0.02,0.11,1.65,-1.18,0.04,47.74,-7.37,-7.06,3
1168034,0.98,-0.02,0.11,1.62,-1.19,-0.0,47.74,-7.37,-7.06,3
1168046,0.98,-0.02,0.11,1.63,-0.93,-0.0,47.74,-7.37,-7.06,3
1168060,0.98,-0.02,0.11,1.63,-0.39,0.05,47.74,-7.37,-7.06,3
1168071,0.98,-0.02,0.11,1.57,-0.41,0.01,47.65,-7.36,-7.12,3
1168083,0.98,-0.02,0.11,1.55,-0.54,-0.02,47.65,-7.36,-7.12,3
1168095,0.98,-0.02,0.11,1.54,-0.76,-0.02,47.65,-7.36,-7.12,3
1168106,0.98,-0.02,0.11,1.55,-0.98,0.01,47.65,-7.36,-7.12,3
1168119,0.98,-0.02,0.11,1.62,-1.59,0.03,47.69,-7.39,-7.04,3
1168130,0.98,-0.02,0.11,1.65,-1.85,0.01,47.69,-7.39,-7.04,3
1168140,0.98,-0.02,0.11,1.59,-1.82,-0.03,47.69,-7.39,-7.04,3
1168151,0.98,-0.02,0.12,1.56,-1.36,-0.01,47.69,-7.39,-7.04,3
1168165,0.98,-0.02,0.12,1.52,0.57,0.02,47.82,-7.44,-6.98,3
1168176,0.98,-0.02,0.11,1.49,1.46,0.03,47.82,-7.44,-6.98,3
1168190,0.98,-0.02,0.11,1.45,2.35,-0.05,47.82,-7.44,-6.98,3
1168201,0.98,-0.02,0.11,1.46,2.35,-0.04,47.82,-7.44,-6.98,3
1168212,0.98,-0.02,0.11,1.49,2.23,-0.04,47.82,-7.44,-6.98,3
1168225,0.98,-0.02,0.11,1.52,2.03,-0.02,47.93,-7.45,-6.81,3
1168235,0.98,-0.02,0.11,1.52,2.02,-0.03,47.93,-7.45,-6.81,3
1168245,0.98,-0.02,0.1,1.53,1.94,-0.04,47.93,-7.45,-6.81,3
1168258,0.99,-0.02,0.1,1.58,1.02,0.01,47.93,-7.45,-6.81,3
1168269,0.99,-0.02,0.1,1.55,0.11,0.01,47.95,-7.45,-6.49,3
1168282,0.98,-0.02,0.1,1.6,-1.53,-0.05,47.95,-7.45,-6.49,3
1168293,0.98,-0.02,0.11,1.61,-1.9,-0.04,47.95,-7.45,-6.49,3
1168305,0.98,-0.02,0.11,1.58,-1.79,-0.02,47.95,-7.45,-6.49,3
1168318,0.98,-0.02,0.11,1.57,-0.51,-0.01,47.98,-7.4,-6.45,3
1168330,0.98,-0.02,0.1,1.58,0.02,-0.02,47.98,-7.4,-6.45,3
1168343,0.98,-0.02,0.1,1.57,-0.23,-0.03,47.98,-7.4,-6.45,3
1168355,0.98,-0.02,0.1,1.6,-0.78,-0.03,47.98,-7.4,-6.45,3
1168366,0.98,-0.02,0.1,1.62,-1.28,-0.01,48.04,-7.47,-6.82,3
1168378,0.98,-0.02,0.1,1.56,-1.88,-0.03,48.04,-7.47,-6.82,3
1168389,0.98,-0.02,0.1,1.55,-2.03,-0.05,48.04,-7.47,-6.82,3
1168400,0.98,-0.02,0.1,1.56,-2.21,-0.03,48.04,-7.47,-6.82,3
1168412,0.98,-0.02,0.1,1.62,-2.82,-0.02,48.04,-7.47,-6.82,3
1168423,0.98,-0.02,0.11,1.66,-3.03,-0.01,47.91,-7.43,-6.85,3
1168434,0.98,-0.02,0.11,1.65,-3.05,-0.02,47.91,-7.43,-6.85,3
1168445,0.98,-0.02,0.11,1.63,-2.39,-0.06,47.91,-7.43,-6.85,3
1168456,0.98,-0.02,0.11,1.63,-1.83,-0.06,47.91,-7.43,-6.85,3
1168467,0.98,-0.02,0.11,1.65,-1.21,-0.03,47.96,-7.45,-6.77,3
1168480,0.98,-0.02,0.11,1.59,-0.67,-0.05,47.96,-7.45,-6.77,3
1168491,0.98,-0.02,0.11,1.55,-0.79,-0.09,47.96,-7.45,-6.77,3
1168503,0.98,-0.02,0.11,1.56,-1.12,-0.08,47.96,-7.45,-6.77,3
1168515,0.98,-0.02,0.11,1.59,-1.58,-0.02,47.94,-7.45,-6.75,3
1168527,0.98,-0.02,0.11,1.57,-1.64,0.01,47.94,-7.45,-6.75,3
1168539,0.98,-0.02,0.11,1.54,-2.11,-0.03,47.94,-7.45,-6.75,3
1168551,0.98,-0.02,0.11,1.58,-2.29,-0.03,47.94,-7.45,-6.75,3
1168562,0.98,-0.02,0.11,1.58,-2.15,-0.04,47.94,-7.45,-6.75,3
1168576,0.98,-0.02,0.11,1.57,-0.73,0.01,47.9,-7.55,-6.86,3
1168586,0.98,-0.02,0.11,1.56,0.2,-0.02,47.9,-7.55,-6.86,3
1168597,0.98,-0.02,0.11,1.55,0.69,-0.03,47.9,-7.55,-6.86,3
1168608,0.98,-0.02,0.1,1.57,0.26,0.01,47.9,-7.55,-6.86,3
1168620,0.98,-0.02,0.11,1.53,-0.27,0.02,47.87,-7.42,-6.89,3
1168632,0.98,-0.02,0.11,1.54,-0.64,0.0,47.87,-7.42,-6.89,3
1168643,0.98,-0.02,0.11,1.56,-0.82,-0.02,47.87,-7.42,-6.89,3
1168655,0.98,-0.02,0.11,1.55,-0.83,-0.03,47.87,-7.42,-6.89,3
1168666,0.98,-0.02,0.11,1.54,-0.86,-0.05,47.93,-7.46,-6.55,3
1168678,0.98,-0.02,0.11,1.58,-0.84,-0.02,47.93,-7.46,-6.55,3
1168690,0.98,-0.02,0.11,1.57,-0.74,-0.01,47.93,-7.46,-6.55,3
1168704,0.98,-0.02,0.11,1.51,-0.55,-0.02,47.93,-7.46,-6.55,3
1168715,0.98,-0.02,0.11,1.53,-0.43,-0.02,47.93,-7.49,-6.64,3
1168727,0.98,-0.02,0.11,1.53,-0.16,-0.0,47.93,-7.49,-6.64,3
1168739,0.98,-0.02,0.11,1.55,0.77,-0.02,47.93,-7.49,-6.64,3
1168751,0.98,-0.02,0.11,1.56,1.27,-0.01,47.93,-7.49,-6.64,3
1168761,0.98,-0.02,0.1,1.57,1.57,-0.0,47.93,-7.49,-6.64,3
1168774,0.98,-0.02,0.1,1.58,1.24,0.01,47.9,-7.55,-6.84,3
1168785,0.98,-0.02,0.1,1.58,0.68,0.02,47.9,-7.55,-6.84,3
1168799,0.98,-0.02,0.1,1.6,-0.34,0.02,47.9,-7.55,-6.84,3
1168811,0.98,-0.02,0.1,1.62,-0.59,0.01,47.9,-7.55,-6.84,3
1168823,0.98,-0.02,0.1,1.57,-0.81,0.03,47.9,-7.57,-7.03,3
1168834,0.98,-0.02,0.1,1.57,-1.0,0.01,47.9,-7.57,-7.03,3
1168845,0.98,-0.02,0.1,1.55,-1.44,-0.0,47.9,-7.57,-7.03,3
1168856,0.98,-0.02,0.1,1.58,-2.02,0.01,47.9,-7.57,-7.03,3
1168869,0.98,-0.02,0.1,1.65,-2.91,0.05,47.9,-7.53,-7.1,3
1168880,0.98,-0.02,0.11,1.65,-2.86,0.06,47.9,-7.53,-7.1,3
1168894,0.98,-0.02,0.11,1.6,-1.43,-0.02,47.9,-7.53,-7.1,3
1168906,0.98,-0.02,0.11,1.59,-0.71,-0.02,47.9,-7.53,-7.1,3
1168919,0.98,-0.02,0.1,1.6,-0.73,-0.03,48.06,-7.55,-7.0,3
1168931,0.98,-0.02,0.1,1.63,-1.13,-0.03,48.06,-7.55,-7.0,3
1168944,0.98,-0.02,0.1,1.63,-1.79,-0.04,48.06,-7.55,-7.0,3
1168956,0.98,-0.02,0.11,1.6,-1.86,-0.0,48.06,-7.55,-7.0,3
1168967,0.98,-0.02,0.11,1.6,-1.79,-0.04,48.07,-7.56,-7.05,3
1168979,0.98,-0.02,0.11,1.61,-1.65,-0.02,48.07,-7.56,-7.05,3
1168991,0.98,-0.02,0.11,1.6,-1.64,-0.04,48.07,-7.56,-7.05,3
1169005,0.98,-0.02,0.11,1.63,-1.34,-0.05,48.07,-7.56,-7.05,3
1169016,0.98,-0.02,0.11,1.61,-1.09,-0.05,47.96,-7.52,-7.05,3
1169029,0.98,-0.02,0.11,1.55,-0.64,-0.06,47.96,-7.52,-7.05,3
1169040,0.98,-0.02,0.11,1.52,-0.58,-0.03,47.96,-7.52,-7.05,3
1169052,0.98,-0.02,0.11,1.53,-0.55,-0.04,47.96,-7.52,-7.05,3
1169063,0.98,-0.02,0.11,1.56,-0.39,-0.03,47.91,-7.5,-7.16,3
1169074,0.98,-0.02,0.11,1.58,-0.13,0.0,47.91,-7.5,-7.16,3
1169086,0.98,-0.02,0.1,1.55,0.08,-0.04,47.91,-7.5,-7.16,3
1169099,0.98,-0.02,0.1,1.57,0.03,0.0,47.91,-7.5,-7.16,3
1169111,0.98,-0.02,0.1,1.6,0.02,0.02,47.91,-7.5,-7.16,3
1169122,0.98,-0.02,0.1,1.61,0.03,0.05,48.04,-7.47,-7.06,3
1169134,0.98,-0.02,0.1,1.57,0.04,0.03,48.04,-7.47,-7.06,3
1169145,0.98,-0.02,0.1,1.59,-0.05,0.05,48.04,-7.47,-7.06,3
1169158,0.98,-0.02,0.1,1.63,-0.1,0.02,48.04,-7.47,-7.06,3
1169170,0.98,-0.02,0.1,1.62,-0.19,-0.0,48.06,-7.42,-6.74,3
1169182,0.98,-0.02,0.1,1.62,-0.41,-0.01,48.06,-7.42,-6.74,3
1169194,0.98,-0.02,0.1,1.6,-1.14,-0.03,48.06,-7.42,-6.74,3
1169206,0.98,-0.02,0.1,1.62,-1.38,-0.04,48.06,-7.42,-6.74,3
1169218,0.98,-0.02,0.1,1.63,-1.22,-0.03,48.14,-7.33,-6.76,3
1169229,0.98,-0.02,0.1,1.61,-0.91,-0.04,48.14,-7.33,-6.76,3
1169241,0.98,-0.02,0.1,1.58,-0.6,-0.07,48.14,-7.33,-6.76,3
1169252,0.98,-0.02,0.1,1.61,-0.41,0.01,48.14,-7.33,-6.76,3
1169264,0.98,-0.02,0.1,1.61,-0.33,0.03,48.11,-7.33,-6.81,3
1169276,0.98,-0.02,0.1,1.6,-0.19,0.07,48.11,-7.33,-6.81,3
1169287,0.98,-0.02,0.1,1.57,0.12,0.01,48.11,-7.33,-6.81,3
1169298,0.98,-0.02,0.1,1.59,0.11,-0.02,48.11,-7.33,-6.81,3
1169309,0.98,-0.02,0.1,1.6,-0.05,-0.01,48.11,-7.33,-6.81,3
1169323,0.98,-0.02,0.1,1.58,-0.58,0.04,48.07,-7.35,-6.51,3
1169333,0.98,-0.02,0.1,1.56,-0.84,0.02,48.07,-7.35,-6.51,3
1169344,0.98,-0.02,0.1,1.58,-1.14,0.0,48.07,-7.35,-6.51,3
1169355,0.98,-0.02,0.1,1.6,-1.58,-0.01,48.07,-7.35,-6.51,3
1169368,0.98,-0.02,0.1,1.61,-1.49,-0.02,48.01,-7.35,-6.63,3
1169379,0.98,-0.02,0.1,1.59,-1.3,-0.02,48.01,-7.35,-6.63,3
1169392,0.98,-0.02,0.1,1.55,-1.06,-0.05,48.01,-7.35,-6.63,3
1169403,0.98,-0.02,0.1,1.56,-1.08,-0.05,48.01,-7.35,-6.63,3
1169416,0.98,-0.02,0.1,1.58,-1.14,-0.03,48.04,-7.34,-6.63,3
1169427,0.98,-0.02,0.1,1.57,-1.2,-0.03,48.04,-7.34,-6.63,3
1169439,0.98,-0.02,0.1,1.56,-1.11,-0.03,48.04,-7.34,-6.63,3
1169450,0.98,-0.02,0.1,1.56,-0.75,-0.01,48.04,-7.34,-6.63,3
1169462,0.98,-0.02,0.1,1.58,-0.38,0.01,48.0,-7.24,-6.65,3
1169474,0.98,-0.02,0.1,1.59,0.0,0.01,48.0,-7.24,-6.65,3
1169486,0.98,-0.02,0.1,1.57,0.35,-0.02,48.0,-7.24,-6.65,3
1169497,0.98,-0.02,0.1,1.58,0.28,-0.0,48.0,-7.24,-6.65,3
1169510,0.98,-0.02,0.1,1.58,-0.24,0.02,48.0,-7.24,-6.65,3
1169522,0.98,-0.02,0.1,1.6,-0.51,0.02,47.96,-7.34,-6.84,3
1169534,0.98,-0.02,0.1,1.59,-0.71,-0.01,47.96,-7.34,-6.84,3
1169546,0.98,-0.02,0.1,1.59,-0.76,-0.03,47.96,-7.34,-6.84,3
1169558,0.98,-0.02,0.1,1.61,-0.63,0.0,47.96,-7.34,-6.84,3
1169570,0.98,-0.02,0.1,1.63,-0.46,0.01,47.96,-7.37,-6.69,3
1169581,0.98,-0.02,0.1,1.61,-0.58,-0.01,47.96,-7.37,-6.69,3
1169593,0.98,-0.02,0.1,1.62,-0.83,-0.03,47.96,-7.37,-6.69,3
1169604,0.98,-0.02,0.1,1.64,-1.27,-0.05,47.96,-7.37,-6.69,3
1169616,0.98,-0.02,0.1,1.64,-1.52,-0.01,47.99,-7.37,-6.56,3
1169628,0.98,-0.02,0.1,1.62,-1.75,0.0,47.99,-7.37,-6.56,3
1169640,0.98,-0.02,0.1,1.6,-1.96,0.02,47.99,-7.37,-6.56,3
1169652,0.98,-0.02,0.1,1.59,-1.97,0.04,47.99,-7.37,-6.56,3
1169663,0.98,-0.02,0.1,1.63,-1.86,0.05,47.84,-7.35,-6.48,3
1169675,0.98,-0.02,0.1,1.58,-1.05,0.04,47.84,-7.35,-6.48,3
1169687,0.98,-0.02,0.1,1.54,-0.59,-0.01,47.84,-7.35,-6.48,3
1169700,0.98,-0.02,0.1,1.61,-0.05,0.02,47.84,-7.35,-6.48,3
1169713,0.98,-0.02,0.1,1.63,-0.13,0.03,47.86,-7.39,-6.42,3
1169727,0.98,-0.02,0.1,1.67,-0.85,0.05,47.86,-7.39,-6.42,3
1169738,0.98,-0.02,0.1,1.64,-0.99,0.01,47.86,-7.39,-6.42,3
1169752,0.98,-0.02,0.1,1.63,-0.94,0.05,47.86,-7.39,-6.42,3
1169763,0.98,-0.02,0.1,1.66,-0.75,0.05,47.94,-7.42,-6.51,3
1169775,0.98,-0.02,0.1,1.66,-0.49,0.04,47.94,-7.42,-6.51,3
1169787,0.98,-0.02,0.1,1.62,-0.22,0.04,47.94,-7.42,-6.51,3
1169799,0.98,-0.02,0.1,1.64,-0.4,0.06,47.94,-7.42,-6.51,3
1169809,0.98,-0.02,0.1,1.63,-0.8,0.03,47.94,-7.42,-6.51,3
1169822,0.98,-0.02,0.1,1.61,-1.59,-0.01,47.93,-7.36,-6.58,3
1169833,0.98,-0.02,0.1,1.57,-1.76,-0.0,47.93,-7.36,-6.58,3
1169845,0.98,-0.02,0.1,1.62,-1.46,-0.05,47.93,-7.36,-6.58,3
1169856,0.98,-0.02,0.1,1.62,-1.13,-0.03,47.93,-7.36,-6.58,3
1169867,0.98,-0.02,0.1,1.61,-0.9,-0.03,47.87,-7.38,-6.48,3
1169881,0.98,-0.02,0.1,1.53,-0.79,-0.01,47.87,-7.38,-6.48,3
1169893,0.98,-0.02,0.1,1.57,-0.96,-0.02,47.87,-7.38,-6.48,3
1169907,0.98,-0.02,0.1,1.61,-1.06,-0.04,47.87,-7.38,-6.48,3
1169918,0.98,-0.02,0.1,1.62,-0.89,-0.0,48.08,-7.37,-6.4,3
1169931,0.98,-0.02,0.1,1.64,-0.39,-0.02,48.08,-7.37,-6.4,3
1169942,0.98,-0.02,0.1,1.63,-0.24,-0.02,48.08,-7.37,-6.4,3
1169954,0.98,-0.02,0.1,1.63,-0.31,-0.01,48.08,-7.37,-6.4,3
1169967,0.98,-0.02,0.1,1.62,-0.78,-0.02,48.1,-7.46,-6.37,3
1169979,0.98,-0.02,0.1,1.62,-0.88,-0.0,48.1,-7.46,-6.37,3
1169992,0.98,-0.02,0.1,1.66,-0.74,0.01,48.1,-7.46,-6.37,3
1170004,0.98,-0.02,0.1,1.66,-0.66,0.04,48.1,-7.46,-6.37,3
1170015,0.98,-0.02,0.1,1.67,-0.53,0.04,48.11,-7.37,-6.24,3
1170027,0.98,-0.02,0.1,1.68,-0.14,0.04,48.11,-7.37,-6.24,3
1170039,0.98,-0.02,0.1,1.63,0.1,0.01,48.11,-7.37,-6.24,3
1170053,0.98,-0.02,0.1,1.61,0.18,-0.01,48.11,-7.37,-6.24,3
1170064,0.98,-0.02,0.1,1.61,0.04,-0.01,48.17,-7.36,-6.33,3
1170076,0.98,-0.02,0.1,1.61,-0.17,0.01,48.17,-7.36,-6.33,3
1170088,0.98,-0.02,0.09,1.63,-0.27,0.02,48.17,-7.36,-6.33,3
1170099,0.98,-0.02,0.09,1.65,-0.44,0.08,48.17,-7.36,-6.33,3
1170114,0.98,-0.02,0.09,1.64,-1.06,0.08,48.12,-7.36,-6.48,3
1170126,0.98,-0.02,0.1,1.64,-1.35,0.08,48.12,-7.36,-6.48,3
1170137,0.98,-0.02,0.1,1.62,-1.2,0.05,48.12,-7.36,-6.48,3
1170148,0.98,-0.02,0.1,1.61,-0.77,0.06,48.12,-7.36,-6.48,3
1170160,0.98,-0.02,0.1,1.59,-0.33,0.05,48.12,-7.36,-6.48,3
1170173,0.99,-0.02,0.09,1.59,-0.21,0.04,48.14,-7.48,-6.28,3
1170184,0.99,-0.02,0.09,1.56,-0.57,-0.01,48.14,-7.48,-6.28,3
1170195,0.99,-0.02,0.09,1.55,-1.13,0.01,48.14,-7.48,-6.28,3
1170207,0.98,-0.02,0.1,1.58,-1.75,0.01,48.14,-7.48,-6.28,3
1170218,0.98,-0.02,0.1,1.57,-1.64,-0.0,48.18,-7.51,-6.41,3
1170230,0.98,-0.02,0.1,1.59,-1.48,-0.03,48.18,-7.51,-6.41,3
1170242,0.98,-0.02,0.09,1.65,-1.23,-0.02,48.18,-7.51,-6.41,3
1170254,0.98,-0.02,0.09,1.62,-1.38,-0.0,48.18,-7.51,-6.41,3
1170266,0.98,-0.02,0.09,1.62,-1.87,0.01,48.23,-7.49,-6.56,3
1170277,0.98,-0.02,0.1,1.6,-1.99,0.01,48.23,-7.49,-6.56,3
1170288,0.98,-0.02,0.1,1.58,-2.08,0.01,48.23,-7.49,-6.56,3
1170302,0.98,-0.02,0.1,1.58,-2.32,-0.01,48.23,-7.49,-6.56,3
1170313,0.98,-0.02,0.1,1.57,-2.4,-0.03,48.33,-7.42,-6.62,3
1170326,0.98,-0.02,0.1,1.55,-2.41,-0.03,48.33,-7.42,-6.62,3
1170337,0.98,-0.02,0.1,1.52,-2.29,-0.04,48.33,-7.42,-6.62,3
1170349,0.98,-0.02,0.1,1.53,-2.14,-0.03,48.33,-7.42,-6.62,3
1170361,0.98,-0.02,0.1,1.57,-1.89,-0.03,48.34,-7.39,-6.73,3
1170373,0.98,-0.02,0.1,1.63,-1.79,-0.01,48.34,-7.39,-6.73,3
1170385,0.98,-0.02,0.1,1.64,-1.53,-0.04,48.34,-7.39,-6.73,3
1170397,0.98,-0.02,0.1,1.61,-0.95,-0.03,48.34,-7.39,-6.73,3
1170408,0.98,-0.02,0.1,1.57,-0.78,-0.03,48.34,-7.39,-6.73,3
1170421,0.98,-0.02,0.1,1.59,-1.04,0.0,48.29,-7.51,-6.66,3
1170433,0.98,-0.02,0.1,1.59,-1.33,0.0,48.29,-7.51,-6.66,3
1170446,0.98,-0.02,0.1,1.61,-1.78,0.02,48.29,-7.51,-6.66,3
1170457,0.98,-0.02,0.1,1.61,-1.77,0.03,48.29,-7.51,-6.66,3
1170468,0.98,-0.02,0.1,1.6,-1.62,0.02,48.25,-7.55,-6.8,3
1170480,0.98,-0.02,0.1,1.57,-1.21,-0.02,48.25,-7.55,-6.8,3
1170492,0.98,-0.02,0.1,1.55,-1.22,-0.02,48.25,-7.55,-6.8,3
1170503,0.98,-0.02,0.1,1.52,-1.26,-0.01,48.25,-7.55,-6.8,3
1170516,0.98,-0.02,0.1,1.53,-0.99,-0.02,48.22,-7.58,-6.74,3
1170527,0.98,-0.02,0.1,1.5,-0.77,-0.01,48.22,-7.58,-6.74,3
1170537,0.98,-0.02,0.1,1.5,-0.56,0.0,48.22,-7.58,-6.74,3
1170550,0.98,-0.02,0.1,1.54,-0.21,0.0,48.22,-7.58,-6.74,3
1170561,0.98,-0.02,0.1,1.57,-0.15,-0.01,48.22,-7.64,-6.77,3
1170572,0.98,-0.02,0.1,1.57,-0.18,-0.02,48.22,-7.64,-6.77,3
1170585,0.98,-0.02,0.1,1.56,-0.51,-0.05,48.22,-7.64,-6.77,3
1170596,0.98,-0.02,0.1,1.61,-0.84,-0.01,48.22,-7.64,-6.77,3
1170607,0.98,-0.02,0.1,1.62,-1.1,0.02,48.22,-7.64,-6.77,3
1170621,0.98,-0.02,0.1,1.66,-1.07,-0.0,48.23,-7.71,-6.72,3
1170631,0.98,-0.02,0.1,1.67,-0.77,-0.04,48.23,-7.71,-6.72,3
1170643,0.98,-0.02,0.1,1.65,-0.34,-0.04,48.23,-7.71,-6.72,3
1170654,0.98,-0.02,0.1,1.62,-0.35,-0.06,48.23,-7.71,-6.72,3
1170666,0.98,-0.02,0.1,1.57,-0.55,-0.04,48.31,-7.68,-6.6,3
1170679,0.98,-0.02,0.1,1.58,-1.2,-0.05,48.31,-7.68,-6.6,3
1170690,0.98,-0.02,0.1,1.55,-1.35,-0.05,48.31,-7.68,-6.6,3
1170701,0.98,-0.02,0.1,1.56,-1.3,-0.04,48.31,-7.68,-6.6,3
1170714,0.98,-0.02,0.1,1.53,-0.89,-0.02,48.18,-7.68,-6.63,3
1170725,0.98,-0.02,0.1,1.56,-0.79,0.01,48.18,-7.68,-6.63,3
1170736,0.98,-0.02,0.1,1.54,-0.79,-0.01,48.18,-7.68,-6.63,3
1170749,0.98,-0.02,0.1,1.54,-1.04,-0.0,48.18,-7.68,-6.63,3
1170759,0.98,-0.02,0.1,1.55,-1.19,-0.03,48.18,-7.68,-6.63,3
1170770,0.98,-0.02,0.1,1.57,-1.3,0.0,48.33,-7.65,-6.66,3
1170781,0.98,-0.02,0.1,1.57,-0.98,-0.04,48.33,-7.65,-6.66,3
1170792,0.98,-0.02,0.1,1.59,-0.71,-0.03,48.33,-7.65,-6.66,3
1170804,0.98,-0.02,0.1,1.6,-0.55,-0.01,48.33,-7.65,-6.66,3
1170817,0.98,-0.02,0.1,1.62,-0.84,0.01,48.35,-7.68,-6.77,3
1170828,0.98,-0.02,0.1,1.63,-1.12,-0.01,48.35,-7.68,-6.77,3
1170839,0.98,-0.02,0.1,1.63,-1.37,-0.03,48.35,-7.68,-6.77,3
1170850,0.98,-0.02,0.1,1.64,-1.35,0.02,48.35,-7.68,-6.77,3
1170862,0.98,-0.02,0.1,1.64,-1.15,0.01,48.4,-7.67,-6.54,3
1170873,0.98,-0.02,0.1,1.64,-0.93,0.01,48.4,-7.67,-6.54,3
1170885,0.98,-0.02,0.1,1.58,-0.77,-0.02,48.4,-7.67,-6.54,3
1170896,0.98,-0.02,0.1,1.56,-0.81,0.01,48.4,-7.67,-6.54,3
1170906,0.98,-0.02,0.1,1.56,-0.88,0.01,48.4,-7.67,-6.54,3
1170917,0.98,-0.02,0.1,1.56,-0.87,-0.03,48.37,-7.73,-6.49,3
1170929,0.98,-0.02,0.1,1.52,-0.65,-0.09,48.37,-7.73,-6.49,3
1170941,0.98,-0.02,0.1,1.51,-0.63,-0.08,48.37,-7.73,-6.49,3
1170954,0.99,-0.02,0.09,1.55,-1.0,-0.01,48.37,-7.73,-6.49,3
1170966,0.98,-0.02,0.09,1.57,-1.35,0.02,48.35,-7.7,-6.56,3
1170978,0.98,-0.02,0.1,1.56,-1.78,-0.05,48.35,-7.7,-6.56,3
1170990,0.98,-0.02,0.1,1.57,-1.59,-0.07,48.35,-7.7,-6.56,3
1171001,0.98,-0.02,0.1,1.57,-1.27,-0.08,48.35,-7.7,-6.56,3
1171014,0.98,-0.02,0.1,1.56,-0.71,-0.01,48.32,-7.6,-6.42,3
1171026,0.98,-0.02,0.1,1.55,-0.57,-0.02,48.32,-7.6,-6.42,3
1171040,0.99,-0.02,0.09,1.56,-1.0,-0.05,48.32,-7.6,-6.42,3
1171052,0.99,-0.02,0.09,1.56,-1.44,-0.02,48.32,-7.6,-6.42,3
1171063,0.98,-0.02,0.09,1.56,-1.86,-0.02,48.29,-7.6,-6.34,3
1171075,0.98,-0.02,0.1,1.55,-2.33,-0.01,48.29,-7.6,-6.34,3
1171087,0.98,-0.02,0.1,1.52,-2.22,-0.03,48.29,-7.6,-6.34,3
1171100,0.98,-0.02,0.1,1.51,-1.64,-0.02,48.29,-7.6,-6.34,3
1171112,0.98,-0.02,0.1,1.52,-1.23,-0.0,48.15,-7.64,-6.56,3
1171122,0.98,-0.02,0.1,1.5,-0.79,-0.03,48.15,-7.64,-6.56,3
1171133,0.98,-0.02,0.1,1.53,-0.45,-0.01,48.15,-7.64,-6.56,3
1171144,0.98,-0.02,0.09,1.54,-0.7,-0.02,48.15,-7.64,-6.56,3
1171156,0.98,-0.02,0.09,1.58,-1.1,-0.01,48.15,-7.64,-6.56,3
1171169,0.98,-0.02,0.1,1.66,-1.84,-0.01,48.05,-7.68,-6.36,3
1171181,0.98,-0.02,0.1,1.63,-1.84,0.02,48.05,-7.68,-6.36,3
1171194,0.98,-0.02,0.1,1.63,-1.12,0.05,48.05,-7.68,-6.36,3
1171206,0.98,-0.02,0.1,1.62,-0.9,0.04,48.05,-7.68,-6.36,3
1171217,0.98,-0.02,0.1,1.63,-0.95,0.03,48.09,-7.63,-6.16,3
1171229,0.98,-0.02,0.1,1.56,-1.28,0.02,48.09,-7.63,-6.16,3
1171241,0.98,-0.02,0.1,1.55,-1.1,0.03,48.09,-7.63,-6.16,3
1171253,0.98,-0.02,0.1,1.54,-0.61,0.02,48.09,-7.63,-6.16,3
1171265,0.98,-0.02,0.1,1.53,-0.49,0.05,47.97,-7.57,-6.25,3
1171276,0.98,-0.02,0.1,1.55,-0.48,0.04,47.97,-7.57,-6.25,3
1171286,0.98,-0.02,0.1,1.57,-0.56,0.01,47.97,-7.57,-6.25,3
1171298,0.98,-0.02,0.1,1.63,-1.1,0.0,47.97,-7.57,-6.25,3
1171310,0.98,-0.02,0.1,1.65,-1.25,0.03,48.08,-7.51,-6.28,3
1171324,0.98,-0.02,0.1,1.67,-1.08,0.02,48.08,-7.51,-6.28,3
1171336,0.98,-0.02,0.1,1.64,-1.0,0.0,48.08,-7.51,-6.28,3
1171346,0.98,-0.02,0.1,1.64,-1.12,0.0,48.08,-7.51,-6.28,3
1171359,0.98,-0.02,0.1,1.61,-1.48,0.02,48.07,-7.55,-6.16,3
1171371,0.98,-0.02,0.1,1.63,-1.59,-0.01,48.07,-7.55,-6.16,3
1171381,0.98,-0.02,0.1,1.64,-1.57,-0.02,48.07,-7.55,-6.16,3
1171393,0.98,-0.02,0.1,1.6,-1.15,-0.04,48.07,-7.55,-6.16,3
1171405,0.98,-0.02,0.1,1.61,-1.14,-0.01,48.07,-7.55,-6.16,3
1171418,0.99,-0.02,0.1,1.62,-1.72,-0.02,48.09,-7.5,-6.01,3
1171429,0.99,-0.02,0.1,1.64,-2.04,-0.03,48.09,-7.5,-6.01,3
1171440,0.98,-0.02,0.1,1.63,-2.23,-0.02,48.09,-7.5,-6.01,3
1171451,0.98,-0.02,0.1,1.68,-2.17,0.03,48.09,-7.5,-6.01,3
1171463,0.98,-0.02,0.1,1.67,-1.96,0.01,48.05,-7.48,-6.13,3
1171474,0.98,-0.02,0.1,1.64,-1.74,-0.02,48.05,-7.48,-6.13,3
1171487,0.98,-0.02,0.1,1.6,-1.45,-0.02,48.05,-7.48,-6.13,3
1171497,0.98,-0.02,0.1,1.62,-1.29,-0.0,48.05,-7.48,-6.13,3
1171509,0.98,-0.02,0.1,1.6,-1.16,-0.0,48.01,-7.43,-6.37,3
1171521,0.98,-0.02,0.1,1.63,-1.02,0.01,48.01,-7.43,-6.37,3
1171533,0.98,-0.02,0.1,1.58,-0.93,-0.02,48.01,-7.43,-6.37,3
1171547,0.98,-0.02,0.1,1.59,-0.91,-0.03,48.01,-7.43,-6.37,3
1171560,0.98,-0.02,0.1,1.59,-0.94,-0.01,47.94,-7.51,-6.28,3
1171571,0.98,-0.02,0.1,1.61,-1.68,-0.05,47.94,-7.51,-6.28,3
1171582,0.98,-0.02,0.1,1.55,-2.14,-0.06,47.94,-7.51,-6.28,3
1171594,0.98,-0.02,0.1,1.57,-2.37,-0.05,47.94,-7.51,-6.28,3
1171608,0.98,-0.02,0.1,1.58,-1.74,-0.02,47.98,-7.49,-6.11,3
1171619,0.98,-0.02,0.1,1.55,-1.17,-0.01,47.98,-7.49,-6.11,3
1171632,0.98,-0.02,0.1,1.55,-0.33,-0.02,47.98,-7.49,-6.11,3
1171643,0.98,-0.02,0.1,1.56,-0.49,-0.02,47.98,-7.49,-6.11,3
1171654,0.99,-0.02,0.1,1.58,-0.99,0.0,47.98,-7.49,-6.11,3
1171667,0.98,-0.02,0.1,1.57,-1.91,0.03,48.12,-7.46,-6.08,3
1171678,0.98,-0.02,0.1,1.56,-1.96,0.03,48.12,-7.46,-6.08,3
1171689,0.98,-0.02,0.1,1.57,-1.64,0.02,48.12,-7.46,-6.08,3
1171702,0.98,-0.02,0.1,1.57,-0.81,0.01,48.12,-7.46,-6.08,3
1171713,0.98,-0.02,0.1,1.6,-0.71,0.01,48.06,-7.55,-5.96,3
1171723,0.98,-0.02,0.1,1.61,-0.92,-0.01,48.06,-7.55,-5.96,3
1171734,0.98,-0.02,0.1,1.57,-1.78,-0.06,48.06,-7.55,-5.96,3
1171745,0.98,-0.02,0.1,1.61,-2.41,-0.03,48.06,-7.55,-5.96,3
1171757,0.98,-0.02,0.1,1.63,-2.83,-0.01,48.06,-7.55,-5.96,3
1171770,0.98,-0.02,0.1,1.65,-2.88,0.01,48.07,-7.62,-5.94,3
1171782,0.98,-0.02,0.1,1.65,-2.65,-0.01,48.07,-7.62,-5.94,3
1171794,0.98,-0.02,0.1,1.66,-2.18,-0.02,48.07,-7.62,-5.94,3
1171805,0.98,-0.02,0.1,1.64,-2.05,-0.0,48.07,-7.62,-5.94,3
1171817,0.98,-0.02,0.1,1.63,-2.12,0.03,48.01,-7.58,-5.95,3
1171830,0.98,-0.02,0.1,1.6,-2.21,-0.01,48.01,-7.58,-5.95,3
1171842,0.98,-0.02,0.11,1.62,-2.1,-0.04,48.01,-7.58,-5.95,3
1171856,0.98,-0.02,0.11,1.64,-1.45,-0.01,48.01,-7.58,-5.95,3
1171867,0.98,-0.02,0.11,1.63,-0.95,0.02,47.88,-7.58,-5.93,3
1171880,0.98,-0.02,0.1,1.61,-0.68,-0.03,47.88,-7.58,-5.93,3
1171891,0.98,-0.02,0.1,1.64,-0.96,-0.05,47.88,-7.58,-5.93,3
1171903,0.98,-0.02,0.1,1.61,-1.3,-0.04,47.88,-7.58,-5.93,3
1171916,0.98,-0.02,0.11,1.61,-1.59,0.0,47.95,-7.54,-6.14,3
1171927,0.98,-0.02,0.11,1.61,-1.37,-0.01,47.95,-7.54,-6.14,3
1171938,0.98,-0.02,0.1,1.62,-1.07,-0.04,47.95,-7.54,-6.14,3
1171949,0.98,-0.02,0.1,1.62,-1.2,-0.02,47.95,-7.54,-6.14,3
1171961,0.99,-0.02,0.1,1.62,-1.74,-0.03,47.91,-7.69,-6.07,3
1171973,0.99,-0.02,0.1,1.62,-2.52,-0.02,47.91,-7.69,-6.07,3
1171985,0.98,-0.02,0.1,1.65,-4.2,-0.04,47.91,-7.69,-6.07,3
1171997,0.98,-0.02,0.11,1.65,-4.69,-0.02,47.91,-7.69,-6.07,3
1172008,0.98,-0.02,0.11,1.63,-4.81,0.01,47.89,-7.72,-6.3,3
1172019,0.98,-0.02,0.11,1.64,-4.68,0.04,47.89,-7.72,-6.3,3
1172031,0.98,-0.02,0.11,1.65,-4.49,0.03,47.89,-7.72,-6.3,3
1172041,0.98,-0.02,0.11,1.62,-4.49,0.02,47.89,-7.72,-6.3,3
1172052,0.98,-0.02,0.11,1.63,-5.2,0.01,47.89,-7.72,-6.3,3
1172064,0.98,-0.02,0.11,1.65,-5.7,-0.0,47.91,-7.65,-6.48,3
1172076,0.98,-0.02,0.11,1.66,-5.96,-0.02,47.91,-7.65,-6.48,3
1172088,0.98,-0.02,0.12,1.68,-5.3,-0.04,47.91,-7.65,-6.48,3
1172100,0.98,-0.02,0.12,1.67,-4.62,-0.05,47.91,-7.65,-6.48,3
1172112,0.98,-0.02,0.12,1.66,-3.36,0.02,47.89,-7.67,-6.39,3
1172123,0.98,-0.02,0.12,1.64,-3.21,0.0,47.89,-7.67,-6.39,3
1172135,0.98,-0.02,0.11,1.56,-3.3,-0.04,47.89,-7.67,-6.39,3
1172145,0.98,-0.02,0.12,1.58,-3.54,-0.06,47.89,-7.67,-6.39,3
1172158,0.98,-0.02,0.12,1.59,-3.61,-0.03,47.91,-7.64,-6.48,3
1172170,0.98,-0.02,0.12,1.59,-3.26,-0.04,47.91,-7.64,-6.48,3
1172181,0.98,-0.02,0.12,1.56,-2.07,-0.06,47.91,-7.64,-6.48,3
1172192,0.98,-0.02,0.12,1.59,-1.69,-0.03,47.91,-7.64,-6.48,3
1172204,0.98,-0.02,0.12,1.59,-1.63,-0.04,47.91,-7.64,-6.48,3
1172217,0.98,-0.02,0.12,1.59,-1.73,-0.05,47.9,-7.64,-6.66,3
1172229,0.98,-0.02,0.12,1.57,-1.39,-0.06,47.9,-7.64,-6.66,3
1172242,0.98,-0.02,0.12,1.64,0.18,-0.03,47.9,-7.64,-6.66,3
1172253,0.98,-0.02,0.12,1.64,1.0,-0.02,47.9,-7.64,-6.66,3
1172264,0.98,-0.02,0.12,1.63,1.64,-0.02,47.96,-7.62,-7.06,3
1172275,0.98,-0.02,0.12,1.6,2.48,-0.02,47.96,-7.62,-7.06,3
1172286,0.98,-0.02,0.12,1.61,2.76,0.01,47.96,-7.62,-7.06,3
1172298,0.98,-0.02,0.12,1.61,2.98,0.02,47.96,-7.62,-7.06,3
1172308,0.98,-0.02,0.12,1.61,3.19,0.03,48.02,-7.6,-6.86,3
1172320,0.98,-0.02,0.11,1.62,3.28,0.04,48.02,-7.6,-6.86,3
1172331,0.98,-0.02,0.12,1.65,3.34,0.02,48.02,-7.6,-6.86,3
1172344,0.98,-0.02,0.12,1.67,3.8,-0.03,48.02,-7.6,-6.86,3
1172355,0.98,-0.02,0.12,1.64,4.37,-0.02,48.02,-7.6,-6.86,3
1172366,0.98,-0.02,0.12,1.6,5.2,-0.04,47.99,-7.54,-6.77,3
1172379,0.98,-0.03,0.15,-2.46,3.16,-0.55,47.99,-7.54,-6.77,3
1172390,0.98,-0.04,0.15,-7.09,0.66,-1.09,47.99,-7.54,-6.77,3
1172401,0.98,-0.03,0.14,-11.46,-1.01,-1.65,47.99,-7.54,-6.77,3
1172415,0.97,-0.02,0.1,-15.21,0.57,-2.17,48.1,-7.55,-6.82,3
1172426,0.97,-0.01,0.09,-13.76,3.94,-2.0,48.1,-7.55,-6.82,3
1172437,0.98,-0.01,0.08,-11.54,6.47,-1.72,48.1,-7.55,-6.82,3
1172449,0.99,-0.02,0.06,-7.41,5.53,-1.22,48.1,-7.55,-6.82,3
1172460,1.0,-0.02,0.06,-5.66,2.48,-1.03,48.05,-7.63,-6.61,3
1172473,1.0,-0.02,0.06,-2.77,-5.5,-0.71,48.05,-7.63,-6.61,3
1172485,0.99,-0.02,0.07,-1.8,-8.75,-0.61,48.05,-7.63,-6.61,3
1172497,0.99,-0.02,0.08,-1.04,-11.22,-0.5,48.05,-7.63,-6.61,3
1172510,0.98,-0.02,0.11,0.05,-13.19,-0.29,48.09,-7.74,-6.45,3
1172522,0.98,-0.02,0.11,0.39,-12.5,-0.24,48.09,-7.74,-6.45,3
1172533,0.97,-0.02,0.12,0.84,-9.5,-0.19,48.09,-7.74,-6.45,3
1172544,0.98,-0.02,0.12,1.0,-7.66,-0.15,48.09,-7.74,-6.45,3
1172557,0.98,-0.02,0.12,1.12,-6.17,-0.13,48.1,-7.73,-6.46,3
1172569,0.99,-0.02,0.11,1.28,-5.4,-0.08,48.1,-7.73,-6.46,3
1172581,0.99,-0.02,0.11,1.31,-6.34,-0.09,48.1,-7.73,-6.46,3
1172594,0.99,-0.02,0.11,1.41,-10.55,-0.05,48.1,-7.73,-6.46,3
1172605,0.99,-0.02,0.11,1.45,-13.5,-0.05,48.1,-7.73,-6.46,3
1172616,0.98,-0.03,0.11,1.26,-16.27,-0.12,48.06,-7.8,-6.38,3
1172627,0.98,-0.02,0.12,-2.44,-17.5,-0.79,48.06,-7.8,-6.38,3
1172638,0.97,-0.02,0.14,-4.39,-16.92,-1.1,48.06,-7.8,-6.38,3
1172649,0.97,-0.02,0.15,-5.71,-15.49,-1.34,48.06,-7.8,-6.38,3
1172660,0.97,-0.02,0.16,-5.88,-13.89,-1.41,48.01,-7.7,-6.43,3
1172672,0.96,-0.02,0.17,-3.33,-10.53,-0.94,48.01,-7.7,-6.43,3
1172684,0.96,-0.02,0.17,-2.24,-7.85,-0.72,48.01,-7.7,-6.43,3
1172698,0.97,-0.02,0.16,-0.79,-2.33,-0.47,48.01,-7.7,-6.43,3
1172709,0.97,-0.02,0.16,-0.28,-0.2,-0.37,48.02,-7.78,-6.48,3
1172720,0.97,-0.02,0.15,0.12,1.19,-0.26,48.02,-7.78,-6.48,3
1172732,0.97,-0.02,0.15,0.65,3.12,-0.15,48.02,-7.78,-6.48,3
1172742,0.97,-0.02,0.16,0.85,4.13,-0.1,48.02,-7.78,-6.48,3
1172752,0.97,-0.02,0.16,1.02,5.57,-0.08,48.02,-7.78,-6.48,3
1172763,0.97,-0.02,0.16,1.14,7.43,-0.06,48.0,-7.78,-6.67,3
1172775,0.97,-0.02,0.15,1.32,12.08,-0.02,48.0,-7.78,-6.67,3
1172787,0.97,-0.02,0.14,1.33,14.02,0.0,48.0,-7.78,-6.67,3
1172800,0.98,-0.02,0.12,1.44,14.9,0.01,48.0,-7.78,-6.67,3
1172811,0.99,-0.02,0.11,1.46,13.46,-0.03,47.93,-7.74,-6.51,3
1172823,0.99,-0.02,0.11,1.5,10.87,-0.04,47.93,-7.74,-6.51,3
1172835,0.99,-0.02,0.11,1.54,4.61,-0.04,47.93,-7.74,-6.51,3
1172845,0.98,-0.02,0.12,1.58,2.25,-0.03,47.93,-7.74,-6.51,3
1172857,0.98,-0.02,0.13,1.62,1.13,-0.01,47.84,-7.78,-6.55,3
1172869,0.97,-0.02,0.13,1.58,2.65,-0.01,47.84,-7.78,-6.55,3
1172880,0.98,-0.02,0.13,1.55,4.42,-0.04,47.84,-7.78,-6.55,3
1172890,0.98,-0.02,0.12,1.53,5.73,-0.03,47.84,-7.78,-6.55,3
1172903,0.98,-0.03,0.12,2.21,6.4,0.1,47.84,-7.78,-6.55,3
1172914,0.98,-0.02,0.12,3.19,5.92,0.24,47.87,-7.78,-6.54,3
1172926,0.98,-0.03,0.12,4.53,4.99,0.52,47.87,-7.78,-6.54,3
1172938,0.98,-0.02,0.12,4.2,6.61,0.49,47.87,-7.78,-6.54,3
1172950,0.98,-0.02,0.11,3.64,8.09,0.44,47.87,-7.78,-6.54,3
1172960,0.98,-0.02,0.11,3.19,9.27,0.36,47.9,-7.77,-6.44,3
1172972,0.98,-0.02,0.1,2.54,10.25,0.23,47.9,-7.77,-6.44,3
1172984,0.99,-0.02,0.1,2.31,9.97,0.16,47.9,-7.77,-6.44,3
1172997,0.99,-0.02,0.09,2.08,7.53,0.12,47.9,-7.77,-6.44,3
1173008,0.99,-0.03,0.09,2.27,6.02,0.13,48.0,-7.78,-6.46,3
1173020,0.98,-0.02,0.1,2.85,4.5,0.18,48.0,-7.78,-6.46,3
1173032,0.98,-0.02,0.1,3.76,3.97,0.26,48.0,-7.78,-6.46,3
1173044,0.98,-0.02,0.1,3.52,5.09,0.23,48.0,-7.78,-6.46,3
1173058,0.98,-0.02,0.1,2.8,7.24,0.1,47.94,-7.79,-6.19,3
1173069,0.98,-0.02,0.09,2.56,7.42,0.11,47.94,-7.79,-6.19,3
1173082,0.99,-0.02,0.09,2.69,5.03,0.15,47.94,-7.79,-6.19,3
1173093,0.98,-0.02,0.09,2.54,4.13,0.16,47.94,-7.79,-6.19,3
1173105,0.98,-0.02,0.09,2.32,3.83,0.11,47.94,-7.79,-6.19,3
1173116,0.98,-0.02,0.09,2.1,5.66,0.04,47.98,-7.86,-5.79,3
1173127,0.98,-0.03,0.09,2.19,6.83,0.03,47.98,-7.86,-5.79,3
1173138,0.98,-0.02,0.09,2.53,7.64,0.09,47.98,-7.86,-5.79,3
1173149,0.99,-0.02,0.08,3.07,7.87,0.19,47.98,-7.86,-5.79,3
1173162,0.99,-0.02,0.06,3.4,5.75,0.29,48.05,-7.9,-5.56,3
1173174,0.99,-0.02,0.06,3.04,3.71,0.18,48.05,-7.9,-5.56,3
1173187,0.99,-0.02,0.07,2.47,-1.13,0.09,48.05,-7.9,-5.56,3
1173199,0.99,-0.02,0.07,2.3,-2.82,0.07,48.05,-7.9,-5.56,3
1173211,0.98,-0.02,0.08,2.03,-2.96,0.09,48.24,-7.87,-5.36,3
1173222,0.98,-0.02,0.09,1.92,-1.65,0.07,48.24,-7.87,-5.36,3
1173234,0.98,-0.02,0.08,1.89,-0.13,0.06,48.24,-7.87,-5.36,3
1173247,0.99,-0.02,0.07,1.78,1.28,0.07,48.24,-7.87,-5.36,3
1173258,0.99,-0.02,0.07,1.72,0.84,0.08,48.24,-7.77,-5.31,3
1173271,0.99,-0.03,0.07,1.69,-0.71,0.05,48.24,-7.77,-5.31,3
1173282,0.98,-0.02,0.08,1.68,-1.16,0.02,48.24,-7.77,-5.31,3
1173294,0.98,-0.02,0.08,1.69,-1.09,0.03,48.24,-7.77,-5.31,3
1173304,0.98,-0.03,0.08,1.68,-0.62,0.01,48.24,-7.77,-5.31,3
1173317,0.98,-0.02,0.08,1.89,1.23,0.02,48.32,-7.76,-5.57,3
1173328,0.98,-0.02,0.08,1.89,2.36,-0.01,48.32,-7.76,-5.57,3
1173342,0.99,-0.02,0.07,1.8,3.03,-0.02,48.32,-7.76,-5.57,3
1173354,0.99,-0.02,0.07,1.76,2.5,-0.04,48.32,-7.76,-5.57,3
1173366,0.99,-0.02,0.07,1.77,0.54,-0.02,48.29,-7.86,-5.51,3
1173377,0.99,-0.02,0.07,1.73,-0.29,-0.03,48.29,-7.86,-5.51,3
1173389,0.99,-0.02,0.07,1.7,-0.91,-0.02,48.29,-7.86,-5.51,3
1173400,0.99,-0.02,0.07,1.66,-1.64,0.03,48.29,-7.86,-5.51,3
1173412,0.99,-0.02,0.07,1.65,-1.86,0.03,48.29,-7.79,-5.41,3
1173424,0.99,-0.02,0.07,1.66,-2.12,-0.01,48.29,-7.79,-5.41,3
1173436,0.98,-0.02,0.07,1.63,-2.57,-0.01,48.29,-7.79,-5.41,3
1173448,0.98,-0.02,0.08,1.64,-2.46,-0.02,48.29,-7.79,-5.41,3
1173459,0.98,-0.02,0.08,1.61,-2.0,-0.03,48.27,-7.77,-5.42,3
1173471,0.99,-0.02,0.07,1.59,-0.82,0.0,48.27,-7.77,-5.42,3
1173483,0.99,-0.02,0.07,1.55,-0.8,0.0,48.27,-7.77,-5.42,3
1173493,0.99,-0.02,0.07,1.57,-1.47,0.02,48.27,-7.77,-5.42,3
1173506,0.99,-0.02,0.07,1.64,-3.86,0.04,48.31,-7.81,-5.31,3
1173517,0.98,-0.02,0.08,1.61,-4.53,0.03,48.31,-7.81,-5.31,3
1173528,0.98,-0.02,0.08,1.57,-3.59,-0.01,48.31,-7.81,-5.31,3
1173540,0.98,-0.02,0.09,1.53,-2.13,-0.02,48.31,-7.81,-5.31,3
1173551,0.98,-0.02,0.08,1.52,-0.41,-0.01,48.31,-7.81,-5.31,3
1173565,0.99,-0.02,0.07,1.51,1.67,-0.01,48.38,-7.84,-5.18,3
1173575,0.99,-0.02,0.07,1.55,1.63,0.01,48.38,-7.84,-5.18,3
1173585,0.99,-0.02,0.07,1.55,1.08,-0.02,48.38,-7.84,-5.18,3
1173595,0.99,-0.02,0.07,1.58,0.25,-0.03,48.38,-7.84,-5.18,3
1173606,0.99,-0.02,0.07,1.6,-0.47,-0.04,48.45,-7.82,-4.96,3
1173617,0.99,-0.02,0.08,1.59,-0.89,-0.01,48.45,-7.82,-4.96,3
1173629,0.98,-0.02,0.08,1.57,-0.72,-0.05,48.45,-7.82,-4.96,3
1173643,0.98,-0.02,0.08,1.55,-0.0,-0.07,48.45,-7.82,-4.96,3
1173653,0.99,-0.02,0.08,1.57,0.3,-0.08,48.45,-7.82,-4.96,3
1173664,0.99,-0.02,0.07,1.6,0.39,-0.06,48.45,-7.88,-4.71,3
1173675,0.99,-0.02,0.07,1.56,-0.16,-0.03,48.45,-7.88,-4.71,3
1173686,0.99,-0.02,0.07,1.58,-0.65,-0.01,48.45,-7.88,-4.71,3
1173698,0.99,-0.02,0.07,1.57,-1.0,-0.01,48.45,-7.88,-4.71,3
1173711,0.98,-0.03,0.08,1.6,-1.08,-0.02,48.44,-7.88,-4.88,3
1173723,0.98,-0.02,0.08,1.59,-0.78,-0.05,48.44,-7.88,-4.88,3
1173736,0.99,-0.02,0.07,1.61,0.49,-0.07,48.44,-7.88,-4.88,3
1173747,0.99,-0.02,0.07,1.63,0.37,-0.09,48.44,-7.88,-4.88,3
1173758,0.99,-0.02,0.07,1.63,-0.25,-0.04,48.41,-7.82,-5.02,3
1173771,0.98,-0.02,0.07,1.65,-1.34,-0.03,48.41,-7.82,-5.02,3
1173782,0.98,-0.02,0.08,1.62,-1.27,-0.06,48.41,-7.82,-5.02,3
1173792,0.98,-0.02,0.08,1.63,-0.72,-0.06,48.41,-7.82,-5.02,3
1173802,0.98,-0.02,0.08,1.62,0.08,-0.04,48.41,-7.82,-5.02,3
1173815,0.99,-0.02,0.07,1.64,1.07,0.03,48.44,-7.93,-4.91,3
1173827,0.99,-0.03,0.07,1.63,0.9,0.01,48.44,-7.93,-4.91,3
1173837,0.99,-0.02,0.07,1.63,0.34,-0.01,48.44,-7.93,-4.91,3
1173849,0.99,-0.02,0.07,1.65,-0.87,-0.05,48.44,-7.93,-4.91,3
1173860,0.99,-0.02,0.07,1.61,-1.27,-0.05,48.5,-7.9,-5.09,3
1173870,0.99,-0.02,0.07,1.59,-1.51,-0.05,48.5,-7.9,-5.09,3
1173881,0.98,-0.02,0.07,1.52,-1.24,-0.03,48.5,-7.9,-5.09,3
1173892,0.98,-0.02,0.08,1.54,-0.83,-0.05,48.5,-7.9,-5.09,3
1173905,0.98,-0.02,0.07,1.55,-0.3,-0.07,48.43,-7.86,-5.2,3
1173917,0.99,-0.02,0.07,1.53,0.8,-0.08,48.43,-7.86,-5.2,3
1173927,0.99,-0.02,0.07,1.49,1.17,-0.09,48.43,-7.86,-5.2,3
1173937,0.99,-0.02,0.07,1.51,1.22,-0.08,48.43,-7.86,-5.2,3
1173947,0.99,-0.03,0.07,1.51,1.0,-0.05,48.43,-7.86,-5.2,3
1173959,0.99,-0.02,0.07,1.8,-0.22,0.01,48.46,-7.96,-5.13,3
1173970,0.99,-0.02,0.07,1.82,-0.54,0.05,48.46,-7.96,-5.13,3
1173980,0.99,-0.02,0.07,1.76,-0.47,0.02,48.46,-7.96,-5.13,3
1173990,0.98,-0.02,0.07,1.73,-0.3,0.01,48.46,-7.96,-5.13,3
1174000,0.98,-0.02,0.07,1.73,0.03,0.0,48.46,-7.96,-5.13,3
1174012,0.98,-0.02,0.07,1.73,0.83,0.0,48.31,-7.92,-5.15,3
1174024,0.99,-0.02,0.07,1.73,1.07,-0.02,48.31,-7.92,-5.15,3
1174038,0.99,-0.02,0.06,1.72,0.25,-0.01,48.31,-7.92,-5.15,3
1174048,0.99,-0.02,0.06,1.66,-0.48,0.03,48.31,-7.92,-5.15,3
1174059,0.99,-0.02,0.07,1.66,-1.05,0.05,48.26,-7.94,-5.07,3
1174070,0.98,-0.02,0.07,1.62,-0.67,0.04,48.26,-7.94,-5.07,3
1174081,0.98,-0.02,0.07,1.61,0.19,0.0,48.26,-7.94,-5.07,3
1174092,0.98,-0.02,0.07,1.63,1.12,0.01,48.26,-7.94,-5.07,3
1174107,0.99,-0.02,0.06,1.57,1.99,0.07,48.21,-7.93,-5.01,3
1174119,0.99,-0.02,0.06,1.59,1.8,0.05,48.21,-7.93,-5.01,3
1174132,0.99,-0.02,0.06,1.59,1.13,0.08,48.21,-7.93,-5.01,3
1174144,0.99,-0.02,0.06,1.58,0.9,0.09,48.21,-7.93,-5.01,3
1174154,0.99,-0.02,0.07,1.59,0.9,0.05,48.11,-7.82,-4.86,3
1174166,0.99,-0.02,0.06,1.53,1.32,0.07,48.11,-7.82,-4.86,3
1174178,0.99,-0.02,0.06,1.54,1.54,0.01,48.11,-7.82,-4.86,3
1174192,0.99,-0.02,0.06,1.55,1.98,-0.05,48.11,-7.82,-4.86,3
1174202,0.99,-0.02,0.06,1.54,2.09,-0.07,48.11,-7.82,-4.86,3
1174213,0.99,-0.02,0.06,1.54,2.01,-0.04,48.16,-7.92,-5.01,3
1174223,0.99,-0.02,0.06,1.52,1.8,-0.0,48.16,-7.92,-5.01,3
1174234,0.99,-0.02,0.06,1.56,1.04,0.03,48.16,-7.92,-5.01,3
1174246,0.99,-0.02,0.06,1.58,0.52,0.01,48.16,-7.92,-5.01,3
1174257,0.99,-0.02,0.05,1.58,-0.06,0.01,48.21,-7.93,-4.72,3
1174269,0.99,-0.02,0.06,1.61,-1.32,-0.02,48.21,-7.93,-4.72,3
1174281,0.99,-0.02,0.06,1.62,-1.76,-0.02,48.21,-7.93,-4.72,3
1174294,0.99,-0.02,0.06,1.62,-1.9,0.07,48.21,-7.93,-4.72,3
1174305,0.99,-0.02,0.06,1.6,-1.97,0.05,48.19,-8.04,-4.43,3
1174316,0.99,-0.02,0.06,1.61,-2.18,0.03,48.19,-8.04,-4.43,3
1174326,0.99,-0.02,0.06,1.59,-2.4,0.01,48.19,-8.04,-4.43,3
1174337,0.99,-0.02,0.06,1.62,-2.89,0.03,48.19,-8.04,-4.43,3
1174348,0.99,-0.02,0.06,1.61,-3.22,0.04,48.19,-8.04,-4.43,3
1174359,0.99,-0.02,0.06,1.61,-3.46,0.06,48.15,-8.1,-4.61,3
1174369,0.99,-0.02,0.06,1.63,-3.55,0.03,48.15,-8.1,-4.61,3
1174380,0.98,-0.02,0.07,1.63,-2.85,0.03,48.15,-8.1,-4.61,3
1174391,0.98,-0.02,0.07,1.62,-2.02,0.04,48.15,-8.1,-4.61,3
1174401,0.98,-0.02,0.07,1.63,-1.17,0.06,48.15,-8.1,-4.61,3
1174412,0.98,-0.02,0.06,1.67,-0.63,0.03,48.22,-8.13,-4.55,3
1174423,0.99,-0.02,0.06,1.62,-0.48,-0.05,48.22,-8.13,-4.55,3
1174434,0.99,-0.02,0.06,1.62,-0.64,-0.04,48.22,-8.13,-4.55,3
1174445,0.99,-0.02,0.06,1.64,-0.88,-0.01,48.22,-8.13,-4.55,3
1174458,0.99,-0.02,0.07,1.66,-0.75,0.03,48.27,-8.13,-4.43,3
1174469,0.99,-0.02,0.07,1.65,-0.33,0.05,48.27,-8.13,-4.43,3
1174479,0.99,-0.02,0.06,1.58,0.14,0.05,48.27,-8.13,-4.43,3
1174489,0.99,-0.02,0.06,1.6,0.36,0.08,48.27,-8.13,-4.43,3
1174500,0.99,-0.02,0.06,1.6,0.29,0.06,48.27,-8.13,-4.43,3
1174511,0.99,-0.02,0.06,1.64,0.17,0.06,48.41,-8.26,-4.34,3
1174523,0.98,-0.02,0.06,1.64,0.31,0.05,48.41,-8.26,-4.34,3
1174535,0.98,-0.02,0.06,1.62,1.5,0.06,48.41,-8.26,-4.34,3
1174546,0.99,-0.02,0.06,1.61,2.11,0.1,48.41,-8.26,-4.34,3
1174558,0.99,-0.02,0.06,1.59,2.45,0.09,48.33,-8.22,-4.46,3
1174570,0.99,-0.02,0.05,1.57,1.7,0.02,48.33,-8.22,-4.46,3
1174580,0.99,-0.02,0.05,1.54,0.96,-0.03,48.33,-8.22,-4.46,3
1174590,0.99,-0.02,0.06,1.55,0.36,-0.03,48.33,-8.22,-4.46,3
1174600,0.99,-0.02,0.06,1.57,0.12,-0.04,48.33,-8.22,-4.46,3
1174613,0.99,-0.02,0.06,1.58,0.6,-0.01,48.34,-8.18,-4.29,3
1174623,0.99,-0.02,0.05,1.55,0.74,-0.02,48.34,-8.18,-4.29,3
1174633,0.99,-0.02,0.05,1.55,0.52,-0.03,48.34,-8.18,-4.29,3
1174643,0.99,-0.02,0.05,1.57,-0.13,-0.01,48.34,-8.18,-4.29,3
1174655,0.99,-0.02,0.05,1.66,-2.09,0.01,48.36,-8.15,-4.17,3
1174665,0.99,-0.02,0.05,1.66,-2.87,0.02,48.36,-8.15,-4.17,3
1174675,0.99,-0.02,0.06,1.65,-3.12,0.0,48.36,-8.15,-4.17,3
1174685,0.99,-0.02,0.06,1.64,-2.96,0.03,48.36,-8.15,-4.17,3
1174695,0.99,-0.02,0.06,1.65,-2.48,0.03,48.36,-8.15,-4.17,3
1174708,0.99,-0.02,0.05,1.67,-1.84,0.05,48.31,-8.06,-4.12,3
1174718,0.99,-0.02,0.05,1.67,-2.32,0.05,48.31,-8.06,-4.12,3
1174728,0.99,-0.02,0.05,1.64,-3.29,0.03,48.31,-8.06,-4.12,3
1174738,0.99,-0.02,0.06,1.67,-4.34,0.05,48.31,-8.06,-4.12,3
1174750,0.98,-0.02,0.07,1.67,-4.92,0.07,48.31,-8.06,-4.12,3
1174761,0.98,-0.02,0.07,1.68,-4.16,0.06,48.31,-8.03,-4.25,3
1174771,0.98,-0.02,0.07,1.65,-2.84,0.03,48.31,-8.03,-4.25,3
1174781,0.98,-0.02,0.07,1.61,-1.51,-0.0,48.31,-8.03,-4.25,3
1174793,0.99,-0.02,0.06,1.58,-0.89,0.03,48.31,-8.03,-4.25,3
1174804,0.99,-0.02,0.06,1.61,-1.63,0.06,48.3,-8.0,-4.2,3
1174814,0.99,-0.02,0.06,1.62,-2.67,0.05,48.3,-8.0,-4.2,3
1174824,0.99,-0.02,0.06,1.61,-3.55,0.04,48.3,-8.0,-4.2,3
1174836,0.99,-0.02,0.07,1.58,-4.13,0.04,48.3,-8.0,-4.2,3
1174846,0.98,-0.02,0.07,1.58,-4.01,0.07,48.3,-8.0,-4.2,3
1174857,0.98,-0.02,0.07,1.58,-3.8,0.07,48.4,-7.98,-4.19,3
1174867,0.99,-0.02,0.07,1.61,-3.55,0.04,48.4,-7.98,-4.19,3
1174879,0.98,-0.02,0.07,1.61,-3.12,-0.02,48.4,-7.98,-4.19,3
1174889,0.99,-0.02,0.07,1.61,-3.02,0.02,48.4,-7.98,-4.19,3
1174899,0.98,-0.02,0.07,1.59,-2.91,0.03,48.4,-7.98,-4.19,3
1174910,0.98,-0.02,0.07,1.59,-2.77,0.05,48.41,-7.85,-4.13,3
1174922,0.99,-0.02,0.07,1.61,-2.33,0.06,48.41,-7.85,-4.13,3
1174932,0.99,-0.02,0.07,1.68,-2.07,0.07,48.41,-7.85,-4.13,3
1174942,0.99,-0.02,0.07,1.67,-1.91,0.07,48.41,-7.85,-4.13,3
1174952,0.99,-0.02,0.07,1.66,-1.93,0.05,48.41,-7.85,-4.13,3
1174965,0.99,-0.02,0.07,1.69,-2.3,0.02,48.31,-7.88,-4.23,3
1174975,0.99,-0.02,0.07,1.7,-2.53,-0.01,48.31,-7.88,-4.23,3
1174986,0.99,-0.02,0.07,1.7,-2.78,-0.01,48.31,-7.88,-4.23,3
1174999,0.99,-0.02,0.07,1.72,-3.02,0.08,48.31,-7.88,-4.23,3
1175010,0.99,-0.02,0.07,1.71,-3.05,0.06,48.49,-7.87,-4.44,3
1175020,0.99,-0.02,0.07,1.7,-3.13,0.06,48.49,-7.87,-4.44,3
1175030,0.99,-0.02,0.07,1.66,-3.28,0.05,48.49,-7.87,-4.44,3
1175042,0.98,-0.02,0.08,1.66,-3.57,0.01,48.49,-7.87,-4.44,3
1175052,0.98,-0.02,0.08,1.66,-3.4,0.02,48.49,-7.87,-4.44,3
1175063,0.98,-0.02,0.08,1.63,-2.99,0.03,48.57,-7.88,-4.39,3
1175073,0.98,-0.02,0.08,1.61,-2.44,0.02,48.57,-7.88,-4.39,3
1175084,0.98,-0.02,0.08,1.63,-1.29,0.02,48.57,-7.88,-4.39,3
1175095,0.98,-0.02,0.08,1.62,-0.92,0.04,48.57,-7.88,-4.39,3
1175106,0.99,-0.02,0.07,1.61,-0.77,0.03,48.46,-7.95,-4.49,3
1175116,0.99,-0.02,0.07,1.6,-0.89,0.01,48.46,-7.95,-4.49,3
1175128,0.99,-0.02,0.07,1.56,-1.7,0.0,48.46,-7.95,-4.49,3
1175138,0.99,-0.02,0.08,1.58,-2.08,-0.02,48.46,-7.95,-4.49,3
1175148,0.98,-0.02,0.08,1.58,-2.25,-0.02,48.46,-7.95,-4.49,3
1175159,0.98,-0.02,0.08,1.6,-2.2,-0.03,48.47,-7.96,-4.61,3
1175171,0.98,-0.02,0.08,1.56,-1.57,-0.02,48.47,-7.96,-4.61,3
1175181,0.98,-0.02,0.08,1.54,-1.17,-0.04,48.47,-7.96,-4.61,3
1175191,0.98,-0.02,0.08,1.52,-0.84,-0.03,48.47,-7.96,-4.61,3
1175204,0.98,-0.02,0.08,1.55,-0.34,0.0,48.4,-8.0,-4.75,3
1175216,0.98,-0.02,0.08,1.56,-0.28,0.0,48.4,-8.0,-4.75,3
1175228,0.98,-0.02,0.08,1.55,-0.27,-0.01,48.4,-8.0,-4.75,3
1175239,0.98,-0.02,0.08,1.57,-0.16,0.0,48.4,-8.0,-4.75,3
1175251,0.98,-0.02,0.08,1.59,0.19,0.02,48.4,-8.0,-4.75,3
1175262,0.98,-0.02,0.08,1.59,0.82,0.03,48.42,-7.96,-4.98,3
1175274,0.99,-0.02,0.07,1.55,1.06,-0.05,48.42,-7.96,-4.98,3
1175284,0.99,-0.02,0.07,1.5,0.55,-0.04,48.42,-7.96,-4.98,3
1175294,0.99,-0.02,0.07,1.54,-0.21,-0.0,48.42,-7.96,-4.98,3
1175305,0.99,-0.02,0.07,1.57,-1.0,0.03,48.21,-8.0,-5.08,3
1175317,0.99,-0.02,0.07,1.63,-1.93,0.05,48.21,-8.0,-5.08,3
1175328,0.99,-0.02,0.07,1.62,-2.08,0.01,48.21,-8.0,-5.08,3
1175339,0.99,-0.02,0.07,1.64,-2.2,0.01,48.21,-8.0,-5.08,3
1175351,0.99,-0.02,0.07,1.68,-2.56,0.05,48.21,-8.0,-5.08,3
1175362,0.99,-0.02,0.07,1.69,-2.84,0.04,48.34,-7.95,-4.85,3
1175372,0.99,-0.02,0.07,1.66,-3.17,0.02,48.34,-7.95,-4.85,3
1175382,0.99,-0.02,0.07,1.62,-3.52,0.0,48.34,-7.95,-4.85,3
1175394,0.98,-0.02,0.08,1.59,-3.84,0.03,48.34,-7.95,-4.85,3
1175404,0.98,-0.02,0.08,1.61,-3.63,0.04,48.21,-7.97,-4.97,3
1175415,0.98,-0.02,0.08,1.61,-3.26,0.04,48.21,-7.97,-4.97,3
1175425,0.98,-0.02,0.08,1.58,-2.88,0.03,48.21,-7.97,-4.97,3
1175437,0.98,-0.02,0.08,1.58,-2.32,0.03,48.21,-7.97,-4.97,3
1175447,0.98,-0.02,0.08,1.59,-2.03,0.03,48.21,-7.97,-4.97,3
1175458,0.98,-0.02,0.08,1.6,-1.67,0.05,48.14,-7.91,-4.9,3
1175468,0.98,-0.02,0.08,1.63,-1.32,0.04,48.14,-7.91,-4.9,3
1175480,0.98,-0.02,0.08,1.64,-0.73,-0.04,48.14,-7.91,-4.9,3
1175491,0.99,-0.02,0.08,1.64,-0.65,-0.01,48.14,-7.91,-4.9,3
1175502,0.99,-0.02,0.08,1.62,-0.8,-0.02,48.24,-8.1,-4.6,3
1175515,0.99,-0.02,0.08,1.58,-1.73,-0.0,48.24,-8.1,-4.6,3
1175525,0.99,-0.02,0.08,1.57,-2.12,-0.04,48.24,-8.1,-4.6,3
1175535,0.99,-0.02,0.08,1.58,-2.27,-0.07,48.24,-8.1,-4.6,3
1175548,0.99,-0.02,0.08,1.59,-2.14,-0.07,48.24,-8.1,-4.6,3
1175559,0.99,-0.02,0.08,1.59,-2.18,-0.05,48.16,-8.1,-4.89,3
1175570,0.99,-0.03,0.08,1.61,-2.31,-0.03,48.16,-8.1,-4.89,3
1175580,0.98,-0.02,0.08,1.61,-2.28,-0.04,48.16,-8.1,-4.89,3
1175592,0.98,-0.02,0.08,1.61,-1.87,-0.02,48.16,-8.1,-4.89,3
1175603,0.98,-0.02,0.08,1.6,-1.57,-0.02,48.18,-8.15,-4.99,3
1175615,0.98,-0.02,0.08,1.62,-0.97,-0.01,48.18,-8.15,-4.99,3
1175627,0.98,-0.02,0.08,1.63,-0.5,-0.02,48.18,-8.15,-4.99,3
1175638,0.98,-0.02,0.08,1.62,0.03,-0.0,48.18,-8.15,-4.99,3
1175653,0.99,-0.02,0.08,1.59,0.74,0.04,48.18,-8.2,-5.2,3
1175665,0.99,-0.02,0.08,1.59,0.5,0.03,48.18,-8.2,-5.2,3
1175675,0.99,-0.02,0.08,1.57,-0.69,-0.04,48.18,-8.2,-5.2,3
1175687,0.98,-0.02,0.08,1.59,-0.99,-0.03,48.18,-8.2,-5.2,3
1175698,0.98,-0.02,0.08,1.59,-0.73,-0.03,48.18,-8.2,-5.2,3
1175712,0.98,-0.02,0.08,1.6,0.78,-0.0,48.14,-8.07,-5.41,3
1175722,0.99,-0.02,0.08,1.6,1.24,-0.01,48.14,-8.07,-5.41,3
1175732,0.99,-0.02,0.08,1.61,1.25,-0.01,48.14,-8.07,-5.41,3
1175742,0.99,-0.02,0.08,1.66,0.93,0.04,48.14,-8.07,-5.41,3
1175752,0.99,-0.02,0.07,1.67,0.41,0.03,48.2,-7.88,-5.41,3
1175764,0.99,-0.02,0.08,1.65,-0.1,0.01,48.2,-7.88,-5.41,3
1175774,0.99,-0.02,0.08,1.6,-0.44,-0.03,48.2,-7.88,-5.41,3
1175785,0.99,-0.02,0.08,1.62,-0.74,-0.02,48.2,-7.88,-5.41,3
1175798,0.99,-0.02,0.08,1.59,-0.78,0.03,48.2,-7.88,-5.41,3
1175809,0.99,-0.02,0.08,1.58,-0.67,0.01,48.23,-7.87,-5.28,3
1175819,0.99,-0.02,0.08,1.55,-0.55,0.04,48.23,-7.87,-5.28,3
1175829,0.99,-0.02,0.08,1.52,-0.59,0.02,48.23,-7.87,-5.28,3
1175841,0.99,-0.02,0.08,1.51,-1.27,0.01,48.23,-7.87,-5.28,3
1175852,0.99,-0.02,0.08,1.53,-1.67,0.02,48.22,-7.87,-5.12,3
1175862,0.99,-0.02,0.08,1.54,-1.96,0.03,48.22,-7.87,-5.12,3
1175872,0.99,-0.02,0.08,1.52,-2.03,0.02,48.22,-7.87,-5.12,3
1175884,0.98,-0.02,0.08,1.54,-1.55,-0.01,48.22,-7.87,-5.12,3
1175894,0.98,-0.02,0.08,1.55,-1.25,-0.01,48.22,-7.87,-5.12,3
1175905,0.98,-0.02,0.08,1.55,-1.01,-0.01,48.3,-7.83,-5.15,3
1175915,0.99,-0.02,0.08,1.54,-0.86,-0.0,48.3,-7.83,-5.15,3
1175927,0.99,-0.02,0.08,1.54,-0.85,0.0,48.3,-7.83,-5.15,3
1175937,0.99,-0.02,0.08,1.53,-1.08,0.01,48.3,-7.83,-5.15,3
1175947,0.99,-0.02,0.08,1.56,-1.38,0.02,48.3,-7.83,-5.15,3
1175958,0.99,-0.02,0.08,1.58,-1.62,0.03,48.3,-7.82,-5.27,3
1175970,0.98,-0.02,0.08,1.55,-1.47,0.02,48.3,-7.82,-5.27,3
1175980,0.98,-0.02,0.08,1.58,-1.14,-0.01,48.3,-7.82,-5.27,3
1175990,0.98,-0.02,0.08,1.6,-0.82,-0.01,48.3,-7.82,-5.27,3
1176004,0.99,-0.02,0.08,1.58,-0.71,-0.02,48.22,-7.84,-5.34,3
1176015,0.99,-0.02,0.08,1.59,-0.95,-0.02,48.22,-7.84,-5.34,3
1176027,0.99,-0.02,0.08,1.56,-1.67,-0.03,48.22,-7.84,-5.34,3
1176039,0.99,-0.02,0.08,1.55,-1.95,-0.02,48.22,-7.84,-5.34,3
1176049,0.98,-0.02,0.08,1.57,-2.03,-0.01,48.22,-7.84,-5.34,3
1176060,0.98,-0.02,0.08,1.63,-1.84,0.01,48.12,-7.84,-5.38,3
1176071,0.98,-0.02,0.08,1.63,-1.15,-0.01,48.12,-7.84,-5.38,3
1176082,0.99,-0.02,0.08,1.59,-0.95,-0.02,48.12,-7.84,-5.38,3
1176092,0.99,-0.02,0.08,1.55,-0.86,-0.03,48.12,-7.84,-5.38,3
1176103,0.99,-0.02,0.08,1.56,-0.82,-0.02,48.14,-7.88,-5.41,3
1176115,0.98,-0.02,0.08,1.58,-0.59,-0.0,48.14,-7.88,-5.41,3
1176127,0.98,-0.02,0.08,1.56,-0.31,-0.03,48.14,-7.88,-5.41,3
1176137,0.99,-0.02,0.08,1.6,-0.08,0.0,48.14,-7.88,-5.41,3
1176147,0.99,-0.02,0.08,1.64,-0.01,0.0,48.14,-7.88,-5.41,3
1176160,0.99,-0.02,0.08,1.67,-0.44,0.05,48.1,-7.85,-5.51,3
1176171,0.99,-0.02,0.08,1.65,-0.74,0.04,48.1,-7.85,-5.51,3
1176182,0.99,-0.02,0.08,1.65,-1.11,0.03,48.1,-7.85,-5.51,3
1176193,0.99,-0.02,0.08,1.67,-1.17,0.06,48.1,-7.85,-5.51,3
1176204,0.98,-0.02,0.08,1.66,-1.16,0.07,48.2,-7.85,-5.25,3
1176215,0.99,-0.02,0.08,1.65,-1.1,0.06,48.2,-7.85,-5.25,3
1176227,0.99,-0.02,0.08,1.63,-1.07,0.02,48.2,-7.85,-5.25,3
1176237,0.99,-0.02,0.08,1.64,-1.12,0.02,48.2,-7.85,-5.25,3
1176247,0.99,-0.02,0.08,1.66,-1.19,0.01,48.2,-7.85,-5.25,3
1176258,0.99,-0.02,0.08,1.63,-1.32,-0.02,48.22,-7.76,-5.28,3
1176270,0.99,-0.02,0.08,1.6,-1.46,0.0,48.22,-7.76,-5.28,3
1176282,0.99,-0.02,0.08,1.61,-1.41,0.0,48.22,-7.76,-5.28,3
1176292,0.99,-0.02,0.08,1.62,-1.37,0.02,48.22,-7.76,-5.28,3
1176305,0.99,-0.02,0.08,1.63,-1.52,0.02,48.22,-7.75,-5.32,3
1176315,0.99,-0.02,0.08,1.67,-1.71,0.03,48.22,-7.75,-5.32,3
1176325,0.99,-0.02,0.08,1.64,-1.83,0.01,48.22,-7.75,-5.32,3
1176335,0.98,-0.02,0.08,1.63,-1.94,0.02,48.22,-7.75,-5.32,3
1176346,0.98,-0.02,0.08,1.58,-1.72,0.01,48.22,-7.75,-5.32,3
1176358,0.98,-0.02,0.08,1.56,-1.42,0.01,48.25,-7.61,-5.35,3
1176368,0.98,-0.02,0.08,1.56,-1.12,0.01,48.25,-7.61,-5.35,3
1176378,0.98,-0.02,0.08,1.53,-0.93,-0.01,48.25,-7.61,-5.35,3
1176390,0.98,-0.02,0.08,1.55,-0.92,0.02,48.25,-7.61,-5.35,3
1176401,0.99,-0.02,0.08,1.55,-1.0,-0.0,48.21,-7.53,-5.29,3
1176413,0.99,-0.02,0.08,1.57,-1.13,-0.0,48.21,-7.53,-5.29,3
1176425,0.99,-0.02,0.08,1.58,-1.16,-0.05,48.21,-7.53,-5.29,3
1176435,0.99,-0.02,0.08,1.64,-1.15,-0.03,48.21,-7.53,-5.29,3
1176446,0.99,-0.02,0.08,1.63,-1.14,0.0,48.21,-7.53,-5.29,3
1176460,0.98,-0.02,0.08,1.65,-1.23,0.02,48.18,-7.53,-5.17,3
1176470,0.98,-0.02,0.08,1.62,-1.24,0.01,48.18,-7.53,-5.17,3
1176480,0.98,-0.02,0.08,1.6,-1.13,0.01,48.18,-7.53,-5.17,3
1176493,0.98,-0.02,0.08,1.55,-1.02,0.06,48.18,-7.53,-5.17,3
1176504,0.98,-0.02,0.08,1.58,-1.15,0.06,48.23,-7.53,-5.45,3
1176517,0.99,-0.02,0.08,1.56,-1.58,0.05,48.23,-7.53,-5.45,3
1176528,0.98,-0.02,0.08,1.54,-1.7,0.02,48.23,-7.53,-5.45,3
1176540,0.98,-0.02,0.08,1.55,-1.64,0.0,48.23,-7.53,-5.45,3
1176551,0.98,-0.02,0.08,1.56,-1.41,0.02,48.29,-7.45,-5.61,3
1176562,0.98,-0.02,0.08,1.59,-1.02,-0.01,48.29,-7.45,-5.61,3
1176574,0.98,-0.02,0.08,1.6,-0.67,-0.01,48.29,-7.45,-5.61,3
1176587,0.99,-0.02,0.08,1.57,-0.63,-0.0,48.29,-7.45,-5.61,3
1176598,0.99,-0.02,0.08,1.62,-0.72,-0.0,48.29,-7.45,-5.61,3
1176609,0.99,-0.02,0.08,1.61,-0.71,0.02,48.34,-7.4,-5.66,3
1176620,0.99,-0.02,0.08,1.55,-0.63,-0.01,48.34,-7.4,-5.66,3
1176631,0.99,-0.02,0.08,1.57,-0.88,-0.04,48.34,-7.4,-5.66,3
1176643,0.99,-0.02,0.08,1.59,-1.17,-0.01,48.34,-7.4,-5.66,3
1176656,0.98,-0.02,0.08,1.58,-1.23,0.04,48.42,-7.55,-5.68,3
1176668,0.98,-0.02,0.08,1.59,-0.86,0.04,48.42,-7.55,-5.68,3
1176681,0.98,-0.02,0.08,1.63,-0.26,0.01,48.42,-7.55,-5.68,3
1176692,0.99,-0.02,0.08,1.65,-0.46,0.03,48.42,-7.55,-5.68,3
1176703,0.99,-0.02,0.08,1.66,-0.88,0.01,48.3,-7.63,-5.79,3
1176713,0.99,-0.02,0.08,1.69,-1.3,0.02,48.3,-7.63,-5.79,3
1176725,0.98,-0.02,0.08,1.67,-1.6,-0.0,48.3,-7.63,-5.79,3
1176736,0.98,-0.02,0.08,1.72,-1.56,0.01,48.3,-7.63,-5.79,3
1176747,0.98,-0.02,0.08,1.73,-1.47,0.04,48.3,-7.63,-5.79,3
1176760,0.98,-0.02,0.08,1.72,-1.2,0.01,48.22,-7.62,-5.92,3
1176770,0.98,-0.02,0.08,1.72,-0.86,0.01,48.22,-7.62,-5.92,3
1176780,0.98,-0.02,0.08,1.7,-0.32,0.01,48.22,-7.62,-5.92,3
1176790,0.98,-0.02,0.08,1.64,0.25,0.02,48.22,-7.62,-5.92,3
1176802,0.98,-0.01,0.08,1.65,0.61,0.02,48.24,-7.66,-5.92,3
