time,acc_x,acc_y,acc_z,gyro_x,gyro_y,gyro_z,mag_x,mag_y,mag_z,label
58605,-0.13,0.16,0.96,1.78,-0.67,0.07,22.35,22.07,-33.08,0
58616,-0.13,0.15,0.96,2.21,-0.33,0.05,22.35,22.07,-33.08,0
58626,-0.13,0.15,0.96,2.52,-0.03,0.11,22.35,22.07,-33.08,0
58636,-0.13,0.15,0.96,2.49,0.27,0.14,22.35,22.07,-33.08,0
58649,-0.13,0.15,0.97,1.87,-0.18,0.05,22.44,21.99,-32.97,0
58659,-0.13,0.15,0.97,1.5,-0.68,-0.05,22.44,21.99,-32.97,0
58670,-0.13,0.15,0.97,1.11,-1.09,-0.12,22.44,21.99,-32.97,0
58682,-0.13,0.15,0.96,0.75,-1.52,-0.25,22.44,21.99,-32.97,0
58694,-0.13,0.16,0.96,0.85,-1.36,-0.24,22.37,22.02,-32.92,0
58706,-0.13,0.16,0.95,1.38,-0.89,-0.14,22.37,22.02,-32.92,0
58718,-0.13,0.16,0.95,1.77,-0.72,-0.1,22.37,22.02,-32.92,0
58728,-0.13,0.16,0.96,2.04,-0.62,-0.02,22.37,22.02,-32.92,0
58740,-0.13,0.16,0.96,2.02,-0.51,0.05,22.29,22.05,-32.91,0
58751,-0.13,0.16,0.96,1.75,-0.54,0.09,22.29,22.05,-32.91,0
58763,-0.13,0.16,0.96,1.34,-0.81,0.13,22.29,22.05,-32.91,0
58776,-0.13,0.16,0.96,1.23,-1.08,0.17,22.29,22.05,-32.91,0
58788,-0.13,0.16,0.96,1.61,-1.03,0.15,22.29,22.05,-32.91,0
58799,-0.13,0.16,0.95,2.05,-0.86,0.09,22.31,22.13,-32.83,0
58811,-0.13,0.16,0.95,2.59,-0.27,0.01,22.31,22.13,-32.83,0
58821,-0.13,0.16,0.96,2.69,-0.11,0.02,22.31,22.13,-32.83,0
58831,-0.13,0.16,0.96,2.62,-0.16,0.01,22.31,22.13,-32.83,0
58842,-0.13,0.16,0.96,2.37,-0.49,0.02,22.22,21.98,-32.72,0
58854,-0.13,0.16,0.96,1.3,-1.07,0.01,22.22,21.98,-32.72,0
58864,-0.13,0.16,0.96,0.72,-1.29,0.04,22.22,21.98,-32.72,0
58875,-0.13,0.16,0.96,0.39,-1.55,0.07,22.22,21.98,-32.72,0
58887,-0.13,0.16,0.96,0.61,-1.73,0.13,22.22,21.98,-32.72,0
58899,-0.13,0.16,0.96,1.1,-1.54,0.12,22.26,22.11,-32.66,0
58909,-0.13,0.16,0.95,1.58,-1.12,0.05,22.26,22.11,-32.66,0
58919,-0.13,0.16,0.95,1.95,-0.71,0.01,22.26,22.11,-32.66,0
58930,-0.13,0.16,0.95,1.83,-0.37,-0.05,22.26,22.11,-32.66,0
58942,-0.13,0.16,0.96,1.53,-0.53,-0.1,22.28,22.01,-32.49,0
58952,-0.13,0.16,0.96,1.17,-0.84,-0.12,22.28,22.01,-32.49,0
58962,-0.13,0.16,0.96,0.87,-1.06,-0.17,22.28,22.01,-32.49,0
58973,-0.13,0.16,0.96,0.85,-1.11,0.03,22.28,22.01,-32.49,0
58984,-0.13,0.16,0.96,1.07,-1.03,0.2,22.28,22.01,-32.49,0
58995,-0.13,0.16,0.96,1.23,-0.91,0.3,22.32,22.08,-32.64,0
59005,-0.13,0.16,0.96,1.35,-0.72,0.3,22.32,22.08,-32.64,0
59016,-0.13,0.16,0.96,1.47,-0.62,0.21,22.32,22.08,-32.64,0
59027,-0.13,0.16,0.96,1.38,-0.71,0.25,22.32,22.08,-32.64,0
59037,-0.13,0.16,0.96,1.24,-0.88,0.23,22.32,22.08,-32.64,0
59048,-0.13,0.16,0.96,1.16,-0.97,0.21,22.29,22.05,-32.63,0
59059,-0.13,0.16,0.96,1.16,-0.92,0.18,22.29,22.05,-32.63,0
59070,-0.13,0.16,0.96,1.18,-0.95,0.22,22.29,22.05,-32.63,0
59080,-0.13,0.16,0.96,1.19,-1.02,0.22,22.29,22.05,-32.63,0
59091,-0.13,0.16,0.96,1.1,-1.02,0.2,22.26,22.08,-32.53,0
59102,-0.13,0.16,0.96,1.11,-0.94,0.06,22.26,22.08,-32.53,0
59113,-0.13,0.16,0.96,1.28,-0.86,0.03,22.26,22.08,-32.53,0
59123,-0.13,0.16,0.95,1.44,-0.76,0.03,22.26,22.08,-32.53,0
59134,-0.13,0.16,0.95,1.55,-0.59,0.01,22.26,22.08,-32.53,0
59147,-0.13,0.16,0.95,2.04,-0.18,-0.0,22.25,22.08,-32.63,0
59159,-0.13,0.16,0.95,2.2,-0.08,-0.0,22.25,22.08,-32.63,0
59170,-0.13,0.16,0.96,1.94,-0.2,-0.14,22.25,22.08,-32.63,0
59181,-0.13,0.16,0.96,1.72,-0.4,-0.17,22.25,22.08,-32.63,0
59192,-0.13,0.16,0.96,1.53,-0.65,-0.09,22.35,22.1,-32.84,0
59206,-0.13,0.16,0.96,1.22,-0.91,-0.02,22.35,22.1,-32.84,0
59217,-0.13,0.16,0.96,1.09,-0.9,-0.11,22.35,22.1,-32.84,0
59230,-0.13,0.16,0.96,0.93,-1.1,-0.12,22.35,22.1,-32.84,0
59242,-0.13,0.16,0.96,0.79,-1.33,-0.09,22.34,22.06,-32.82,0
59254,-0.13,0.16,0.95,0.71,-1.49,-0.1,22.34,22.06,-32.82,0
59266,-0.13,0.16,0.96,0.95,-1.56,-0.19,22.34,22.06,-32.82,0
59278,-0.13,0.16,0.96,1.22,-1.36,-0.09,22.34,22.06,-32.82,0
59289,-0.13,0.16,0.96,1.49,-1.07,0.05,22.35,22.03,-32.99,0
59301,-0.13,0.16,0.97,1.68,-0.59,0.16,22.35,22.03,-32.99,0
59312,-0.13,0.16,0.96,1.42,-0.6,0.12,22.35,22.03,-32.99,0
59323,-0.13,0.16,0.96,1.17,-0.9,0.1,22.35,22.03,-32.99,0
59335,-0.13,0.16,0.96,1.0,-1.56,-0.01,22.35,22.03,-32.99,0
59346,-0.13,0.16,0.96,1.1,-1.85,0.03,22.44,22.01,-32.95,0
59356,-0.13,0.16,0.96,1.17,-1.91,0.07,22.44,22.01,-32.95,0
59366,-0.13,0.16,0.96,1.28,-1.72,0.04,22.44,22.01,-32.95,0
89416,-0.09,0.13,0.96,2.13,-0.85,0.11,22.47,21.97,-33.01,0
89426,-0.06,0.1,0.96,2.75,0.13,0.03,22.47,21.97,-33.01,0
89437,-0.04,0.08,0.96,3.19,0.71,-0.1,22.98,23.76,-32.75,0
89447,-0.02,0.07,0.97,3.5,1.12,-0.28,22.98,23.76,-32.75,0
89459,0.01,0.05,0.98,3.55,1.56,-0.58,22.98,23.76,-32.75,0
89470,0.02,0.04,0.98,3.04,1.17,-0.5,22.98,23.76,-32.75,0
89481,0.03,0.03,0.98,2.3,0.42,-0.29,23.47,25.12,-32.26,0
89493,0.03,0.03,0.97,0.9,-0.52,0.31,23.47,25.12,-32.26,0
89503,0.03,0.02,0.97,0.58,-0.4,0.51,23.47,25.12,-32.26,0
89513,0.04,0.02,0.97,0.68,-0.03,0.53,23.47,25.12,-32.26,0
89524,0.04,0.02,0.98,0.96,0.38,0.46,23.47,25.12,-32.26,0
89537,0.04,0.02,0.98,1.54,0.8,0.33,23.91,25.98,-31.98,0
89547,0.04,0.02,0.99,1.87,0.73,0.31,23.91,25.98,-31.98,0
89558,0.04,0.02,0.99,2.17,0.53,0.28,23.91,25.98,-31.98,0
89569,0.04,0.02,0.98,2.6,0.04,0.21,23.91,25.98,-31.98,0
89581,0.05,0.01,0.98,2.62,-0.17,0.15,24.1,26.82,-31.57,0
89591,0.05,0.01,0.98,2.55,-0.24,0.12,24.1,26.82,-31.57,0
89603,0.05,0.01,0.98,2.12,-0.07,0.05,24.1,26.82,-31.57,0
89614,0.05,0.02,0.98,1.9,-0.12,-0.03,24.1,26.82,-31.57,0
89626,0.05,0.02,0.98,2.1,-0.2,-0.12,24.1,26.82,-31.57,0
89639,0.05,0.02,0.98,3.24,-0.31,0.08,24.31,27.3,-31.5,0
89649,0.05,0.02,0.98,3.61,-0.38,0.35,24.31,27.3,-31.5,0
89659,0.05,0.01,0.98,3.63,-0.37,0.54,24.31,27.3,-31.5,0
89670,0.05,0.01,0.98,3.18,-0.36,0.57,24.31,27.3,-31.5,0
89683,0.05,0.01,0.98,1.93,-0.86,0.27,24.49,27.97,-31.3,0
89695,0.05,0.02,0.98,1.49,-1.14,0.28,24.49,27.97,-31.3,0
89705,0.05,0.02,0.98,1.35,-1.18,0.38,24.49,27.97,-31.3,0
89717,0.05,0.02,0.98,1.96,-0.66,0.59,24.49,27.97,-31.3,0
89727,0.05,0.01,0.98,2.16,-0.33,0.58,24.68,28.28,-31.05,0
89739,0.05,0.01,0.98,2.08,-0.14,0.5,24.68,28.28,-31.05,0
89751,0.05,0.01,0.98,1.61,-0.19,0.14,24.68,28.28,-31.05,0
89762,0.05,0.01,0.98,1.41,-0.39,0.0,24.68,28.28,-31.05,0
89776,0.05,0.01,0.98,1.28,-1.0,-0.03,24.68,28.28,-31.05,0
89787,0.05,0.01,0.98,1.28,-1.09,-0.06,24.87,28.59,-30.62,0
89799,0.05,0.01,0.98,1.2,-1.14,-0.09,24.87,28.59,-30.62,0
89811,0.05,0.01,0.98,1.03,-1.75,0.04,24.87,28.59,-30.62,0
89821,0.05,0.01,0.97,0.95,-2.04,0.14,24.87,28.59,-30.62,0
89832,0.05,0.01,0.97,0.95,-2.01,0.2,24.96,28.94,-30.84,0
89845,0.05,0.01,0.97,1.27,-1.09,0.02,24.96,28.94,-30.84,0
89857,0.05,0.01,0.97,1.55,-0.57,-0.17,24.96,28.94,-30.84,0
89867,0.05,0.01,0.97,1.74,-0.21,-0.36,24.96,28.94,-30.84,0
89879,0.05,0.01,0.97,2.15,0.17,-0.57,25.06,29.1,-30.58,0
89889,0.05,0.01,0.98,2.47,0.15,-0.55,25.06,29.1,-30.58,0
89899,0.05,0.01,0.98,2.63,0.07,-0.51,25.06,29.1,-30.58,0
89909,0.05,0.01,0.98,2.54,-0.08,-0.48,25.06,29.1,-30.58,0
89919,0.05,0.01,0.98,2.27,-0.4,-0.47,25.06,29.1,-30.58,0
89932,0.05,0.01,0.98,1.46,-1.13,-0.39,25.16,29.21,-30.52,0
89942,0.05,0.01,0.98,1.1,-1.46,-0.36,25.16,29.21,-30.52,0
89952,0.05,0.02,0.98,0.91,-1.58,-0.39,25.16,29.21,-30.52,0
89962,0.05,0.02,0.98,0.87,-1.47,-0.41,25.16,29.21,-30.52,0
89974,0.05,0.02,0.98,1.12,-1.11,-0.44,25.16,29.21,-30.52,0
89984,0.05,0.02,0.98,1.5,-1.17,-0.45,25.18,29.36,-30.35,0
89995,0.05,0.02,0.98,1.98,-1.35,-0.41,25.18,29.36,-30.35,0
90005,0.05,0.02,0.98,2.31,-1.44,-0.33,25.18,29.36,-30.35,0
90017,0.05,0.02,0.98,2.26,-1.43,-0.06,25.18,29.36,-30.35,0
90028,0.05,0.01,0.98,1.93,-1.41,0.08,25.12,29.58,-30.44,0
90039,0.05,0.01,0.98,1.54,-1.43,0.21,25.12,29.58,-30.44,0
90051,0.05,0.01,0.97,0.88,-1.07,0.12,25.12,29.58,-30.44,0
90063,0.05,0.01,0.97,0.81,-0.84,-0.05,25.12,29.58,-30.44,0
90075,0.05,0.02,0.98,1.07,-0.41,-0.16,25.12,29.58,-30.44,0
90087,0.05,0.02,0.98,1.4,-0.46,0.01,24.98,29.62,-30.25,0
90099,0.05,0.02,0.98,1.82,-0.53,0.22,24.98,29.62,-30.25,0
90110,0.05,0.02,0.98,2.41,-0.23,0.43,24.98,29.62,-30.25,0
90121,0.05,0.01,0.99,2.37,-0.03,0.41,24.98,29.62,-30.25,0
90131,0.06,0.01,0.99,2.01,-0.13,0.36,24.96,29.61,-30.11,0
90144,0.06,0.01,0.99,0.78,-0.85,0.25,24.96,29.61,-30.11,0
90155,0.05,0.01,0.98,0.22,-1.09,0.17,24.96,29.61,-30.11,0
90165,0.05,0.01,0.98,-0.03,-1.23,0.05,24.96,29.61,-30.11,0
90175,0.05,0.01,0.98,0.12,-1.25,-0.06,24.96,29.61,-30.11,0
90186,0.05,0.01,0.98,0.54,-1.22,-0.06,24.97,29.68,-30.04,0
90198,0.05,0.01,0.97,1.7,-1.1,-0.01,24.97,29.68,-30.04,0
90208,0.05,0.01,0.97,2.21,-1.04,-0.03,24.97,29.68,-30.04,0
90218,0.05,0.01,0.97,2.52,-1.04,-0.12,24.97,29.68,-30.04,0
90229,0.05,0.01,0.97,2.49,-1.06,-0.2,25.02,29.61,-30.2,0
90240,0.05,0.01,0.97,1.86,-1.07,-0.32,25.02,29.61,-30.2,0
90251,0.05,0.01,0.97,1.71,-0.96,-0.42,25.02,29.61,-30.2,0
90261,0.05,0.01,0.97,1.75,-0.89,-0.42,25.02,29.61,-30.2,0
90271,0.05,0.01,0.97,1.7,-0.86,-0.34,25.02,29.61,-30.2,0
90283,0.05,0.02,0.97,1.08,-0.91,-0.22,25.13,29.7,-30.2,0
90294,0.05,0.02,0.97,0.88,-1.02,-0.21,25.13,29.7,-30.2,0
90304,0.05,0.02,0.98,0.85,-1.02,-0.23,25.13,29.7,-30.2,0
90314,0.05,0.02,0.98,0.9,-0.86,-0.21,25.13,29.7,-30.2,0
90325,0.05,0.02,0.98,1.22,-0.38,-0.27,25.13,29.7,-30.2,0
90337,0.05,0.02,0.99,1.38,-0.24,-0.25,25.05,29.79,-30.29,0
90347,0.05,0.02,0.99,1.53,-0.27,-0.18,25.05,29.79,-30.29,0
90357,0.05,0.02,0.99,1.53,-0.44,-0.02,25.05,29.79,-30.29,0
90369,0.05,0.02,0.98,1.5,-0.97,0.29,25.05,29.79,-30.29,0
90380,0.05,0.02,0.98,1.74,-1.07,0.34,25.07,29.83,-30.27,0
90391,0.05,0.01,0.98,1.93,-1.04,0.38,25.07,29.83,-30.27,0
90402,0.05,0.01,0.97,1.88,-0.9,0.13,25.07,29.83,-30.27,0
90413,0.05,0.01,0.97,1.76,-0.76,0.01,25.07,29.83,-30.27,0
90424,0.05,0.01,0.97,1.68,-0.64,-0.05,25.07,29.83,-30.27,0
90436,0.05,0.01,0.97,1.0,-0.78,0.2,25.27,29.9,-30.39,0
90447,0.05,0.02,0.97,0.76,-0.66,0.32,25.27,29.9,-30.39,0
90459,0.05,0.02,0.98,0.89,-0.42,0.38,25.27,29.9,-30.39,0
90469,0.05,0.02,0.98,1.19,-0.28,0.39,25.27,29.9,-30.39,0
90481,0.05,0.01,0.98,1.62,-0.54,0.31,25.25,29.97,-30.41,0
90492,0.05,0.01,0.98,1.66,-0.61,0.25,25.25,29.97,-30.41,0
90502,0.05,0.01,0.98,1.65,-0.53,0.22,25.25,29.97,-30.41,0
90515,0.05,0.01,0.98,1.9,-0.31,0.16,25.25,29.97,-30.41,0
90526,0.05,0.01,0.98,1.99,-0.09,0.05,25.24,30.0,-30.46,0
90537,0.05,0.02,0.98,1.99,-0.02,-0.02,25.24,30.0,-30.46,0
90550,0.05,0.02,0.98,1.77,-0.6,0.09,25.24,30.0,-30.46,0
90561,0.05,0.02,0.98,1.5,-0.98,0.24,25.24,30.0,-30.46,0
90574,0.05,0.02,0.97,1.94,-1.14,0.15,25.24,30.0,-30.46,0
90586,0.05,0.02,0.97,2.69,-0.87,-0.0,25.24,29.89,-30.39,0
90596,0.05,0.02,0.97,3.18,-0.43,-0.15,25.24,29.89,-30.39,0
90606,0.05,0.02,0.98,3.29,-0.08,-0.21,25.24,29.89,-30.39,0
90618,0.05,0.01,0.98,2.66,-0.37,-0.05,25.24,29.89,-30.39,0
90629,0.05,0.01,0.98,2.0,-0.64,0.15,25.23,29.97,-30.29,0
90639,0.05,0.01,0.98,1.37,-0.73,0.32,25.23,29.97,-30.29,0
90649,0.05,0.01,0.98,0.95,-0.73,0.3,25.23,29.97,-30.29,0
90659,0.05,0.01,0.98,1.02,-0.78,0.07,25.23,29.97,-30.29,0
90670,0.05,0.01,0.98,1.43,-0.81,-0.07,25.23,29.97,-30.29,0
90681,0.05,0.01,0.98,1.89,-0.87,-0.13,25.3,30.05,-30.33,0
90695,0.05,0.01,0.98,2.25,-0.86,-0.11,25.3,30.05,-30.33,0
90706,0.05,0.01,0.98,2.28,-0.7,-0.05,25.3,30.05,-30.33,0
90717,0.05,0.01,0.98,2.26,-0.54,0.03,25.3,30.05,-30.33,0
90729,0.06,0.01,0.98,1.88,-0.37,0.1,25.3,29.95,-30.28,0
90740,0.06,0.01,0.98,1.53,-0.5,0.16,25.3,29.95,-30.28,0
90750,0.06,0.01,0.98,1.18,-0.66,0.19,25.3,29.95,-30.28,0
90761,0.06,0.01,0.98,0.99,-0.7,0.23,25.3,29.95,-30.28,0
90773,0.05,0.01,0.98,1.19,-0.23,-0.06,25.3,29.95,-30.28,0
90784,0.06,0.01,0.99,1.41,-0.02,-0.33,25.4,29.9,-30.03,0
90795,0.06,0.01,0.99,1.49,-0.23,-0.4,25.4,29.9,-30.03,0
90807,0.06,0.01,0.98,1.39,-1.13,-0.07,25.4,29.9,-30.03,0
90819,0.05,0.01,0.98,1.23,-1.38,0.2,25.4,29.9,-30.03,0
90831,0.05,0.01,0.97,0.97,-1.48,0.39,25.42,29.89,-29.82,0
90842,0.05,0.01,0.97,1.25,-1.25,0.22,25.42,29.89,-29.82,0
90852,0.05,0.01,0.97,1.77,-0.87,-0.06,25.42,29.89,-29.82,0
90862,0.05,0.01,0.97,2.21,-0.58,-0.25,25.42,29.89,-29.82,0
90872,0.06,0.01,0.98,2.26,-0.49,-0.3,25.42,29.89,-29.82,0
90885,0.06,0.01,0.98,1.11,-1.03,-0.18,25.49,29.9,-29.99,0
90895,0.05,0.01,0.98,0.51,-1.28,-0.14,25.49,29.9,-29.99,0
90905,0.05,0.01,0.98,0.16,-1.28,-0.22,25.49,29.9,-29.99,0
90915,0.05,0.01,0.98,0.2,-1.12,-0.26,25.49,29.9,-29.99,0
90927,0.05,0.02,0.98,0.82,-0.91,-0.43,25.56,29.88,-30.08,0
90937,0.05,0.02,0.98,0.91,-0.87,-0.5,25.56,29.88,-30.08,0
90947,0.05,0.02,0.98,0.74,-0.95,-0.51,25.56,29.88,-30.08,0
90957,0.05,0.02,0.98,0.45,-1.14,-0.49,25.56,29.88,-30.08,0
90970,0.06,0.02,0.98,0.22,-1.21,-0.38,25.56,29.88,-30.08,0
90981,0.06,0.02,0.98,0.5,-1.03,-0.38,25.59,29.87,-30.01,0
90994,0.06,0.02,0.98,1.17,-0.83,-0.27,25.59,29.87,-30.01,0
91005,0.05,0.02,0.98,1.22,-0.91,-0.13,25.59,29.87,-30.01,0
91016,0.05,0.02,0.98,1.03,-0.99,-0.07,25.59,29.87,-30.01,0
91029,0.05,0.02,0.98,0.49,-0.92,-0.16,25.47,29.88,-29.96,0
91040,0.06,0.02,0.98,0.29,-0.81,-0.17,25.47,29.88,-29.96,0
91050,0.06,0.02,0.98,0.25,-0.69,-0.2,25.47,29.88,-29.96,0
91061,0.06,0.02,0.98,0.22,-0.72,-0.22,25.47,29.88,-29.96,0
91073,0.05,0.02,0.97,-0.13,-1.22,-0.34,25.47,29.88,-29.96,0
91085,0.05,0.02,0.97,-0.12,-1.44,-0.3,25.44,29.87,-29.91,0
91097,0.05,0.02,0.97,0.43,-1.52,0.08,25.44,29.87,-29.91,0
91108,0.05,0.02,0.97,0.82,-1.49,0.32,25.44,29.87,-29.91,0
91120,0.05,0.02,0.97,1.0,-1.27,0.49,25.44,29.87,-29.91,0
91132,0.05,0.02,0.97,0.51,-0.64,0.66,25.43,29.78,-29.92,0
91143,0.05,0.02,0.97,0.18,-0.42,0.56,25.43,29.78,-29.92,0
91153,0.05,0.02,0.97,-0.13,-0.22,0.39,25.43,29.78,-29.92,0
91163,0.05,0.02,0.98,-0.39,0.01,0.25,25.43,29.78,-29.92,0
91173,0.06,0.02,0.98,-0.5,0.14,0.16,25.43,29.78,-29.92,0
91186,0.06,0.02,0.98,0.65,-0.38,0.05,25.38,29.81,-29.81,0
91197,0.06,0.02,0.98,1.31,-0.65,0.03,25.38,29.81,-29.81,0
91210,0.06,0.02,0.98,1.35,-0.43,-0.1,25.38,29.81,-29.81,0
91222,0.06,0.02,0.99,1.13,-0.36,-0.12,25.38,29.81,-29.81,0
91233,0.06,0.02,0.99,0.78,-0.47,-0.09,25.3,29.78,-30.02,0
91245,0.06,0.02,0.99,-0.07,-1.16,-0.03,25.3,29.78,-30.02,0
91257,0.06,0.02,0.98,-0.11,-1.58,-0.04,25.3,29.78,-30.02,0
91271,0.05,0.02,0.97,0.93,-1.77,-0.22,25.3,29.78,-30.02,0
91282,0.05,0.02,0.97,1.62,-1.51,-0.36,25.27,29.78,-30.2,0
91293,0.05,0.02,0.97,2.01,-1.21,-0.43,25.27,29.78,-30.2,0
91305,0.05,0.02,0.97,1.89,-0.93,-0.4,25.27,29.78,-30.2,0
91317,0.05,0.02,0.97,1.85,-0.84,-0.38,25.27,29.78,-30.2,0
91328,0.05,0.02,0.97,2.01,-0.62,-0.41,25.24,29.98,-30.27,0
91340,0.06,0.02,0.97,1.75,-0.36,-0.49,25.24,29.98,-30.27,0
91351,0.06,0.02,0.98,1.25,-0.59,-0.4,25.24,29.98,-30.27,0
91365,0.05,0.03,0.97,0.7,-1.02,-0.19,25.24,29.98,-30.27,0
91376,0.05,0.03,0.97,0.91,-0.8,-0.23,25.26,29.97,-30.1,0
91387,0.05,0.03,0.97,1.47,-0.38,-0.36,25.26,29.97,-30.1,0
91399,0.06,0.03,0.98,2.54,0.06,-0.46,25.26,29.97,-30.1,0
91411,0.06,0.02,0.98,2.65,-0.07,-0.4,25.26,29.97,-30.1,0
91424,0.06,0.02,0.98,2.1,-0.79,-0.11,25.28,29.9,-29.99,0
91436,0.06,0.03,0.98,1.86,-1.09,0.07,25.28,29.9,-29.99,0
91447,0.06,0.02,0.98,1.75,-1.04,0.16,25.28,29.9,-29.99,0
91459,0.05,0.02,0.98,1.69,-0.7,0.26,25.28,29.9,-29.99,0
91471,0.06,0.02,0.98,1.52,-0.8,0.23,25.28,29.9,-29.99,0
91482,0.06,0.02,0.98,1.33,-1.05,0.18,25.24,29.87,-30.0,0
91494,0.05,0.02,0.97,1.2,-1.41,0.16,25.24,29.87,-30.0,0
91504,0.05,0.02,0.97,1.11,-1.2,0.22,25.24,29.87,-30.0,0
91514,0.05,0.02,0.97,1.07,-0.87,0.23,25.24,29.87,-30.0,0
91524,0.06,0.03,0.97,1.33,-0.62,0.19,25.25,29.77,-29.86,0
91537,0.06,0.02,0.97,2.23,-0.52,0.14,25.25,29.77,-29.86,0
91548,0.06,0.02,0.98,2.36,-0.53,0.06,25.25,29.77,-29.86,0
91561,0.06,0.02,0.98,1.94,-0.58,0.13,25.25,29.77,-29.86,0
91572,0.06,0.02,0.98,1.48,-0.49,0.18,25.25,29.77,-29.86,0
91583,0.06,0.02,0.98,1.02,-0.44,0.24,25.22,29.86,-29.82,0
91593,0.06,0.02,0.98,0.72,-0.5,0.29,25.22,29.86,-29.82,0
91606,0.06,0.02,0.98,1.06,-0.92,0.35,25.22,29.86,-29.82,0
91617,0.06,0.02,0.98,1.57,-0.89,0.27,25.22,29.86,-29.82,0
91628,0.06,0.02,0.98,2.03,-0.76,0.2,25.13,29.88,-29.9,0
91640,0.06,0.02,0.98,2.66,-0.55,0.1,25.13,29.88,-29.9,0
91652,0.06,0.02,0.98,2.66,-0.5,0.09,25.13,29.88,-29.9,0
91665,0.06,0.02,0.97,1.83,-0.71,0.07,25.13,29.88,-29.9,0
91676,0.05,0.02,0.97,1.37,-0.82,0.02,25.26,29.78,-29.86,0
91688,0.06,0.02,0.97,0.94,-0.76,-0.04,25.26,29.78,-29.86,0
91700,0.06,0.02,0.97,0.56,-0.88,-0.06,25.26,29.78,-29.86,0
91710,0.06,0.03,0.98,0.91,-1.02,-0.08,25.26,29.78,-29.86,0
91721,0.06,0.03,0.97,1.41,-1.02,-0.01,25.26,29.78,-29.86,0
91734,0.05,0.02,0.97,2.3,-0.71,0.17,25.29,29.81,-29.95,0
91746,0.06,0.02,0.98,2.52,-0.47,0.11,25.29,29.81,-29.95,0
91758,0.06,0.02,0.98,2.26,-0.16,0.15,25.29,29.81,-29.95,0
91769,0.06,0.02,0.98,1.94,-0.16,0.22,25.29,29.81,-29.95,0
91780,0.06,0.02,0.98,1.7,-0.28,0.23,25.25,29.79,-30.08,0
91793,0.06,0.02,0.98,1.67,-0.39,-0.03,25.25,29.79,-30.08,0
91804,0.06,0.02,0.98,1.95,-0.58,-0.1,25.25,29.79,-30.08,0
91815,0.06,0.02,0.98,2.26,-0.83,-0.08,25.25,29.79,-30.08,0
91827,0.06,0.02,0.98,2.2,-0.77,0.11,25.05,29.74,-30.09,0
91838,0.06,0.02,0.98,1.97,-0.55,0.07,25.05,29.74,-30.09,0
91850,0.06,0.02,0.98,1.73,-0.36,0.04,25.05,29.74,-30.09,0
91863,0.06,0.02,0.98,1.25,-0.7,0.1,25.05,29.74,-30.09,0
91874,0.06,0.02,0.98,1.24,-1.06,0.07,25.03,29.73,-30.25,0
91886,0.06,0.02,0.98,1.39,-1.2,0.07,25.03,29.73,-30.25,0
91898,0.06,0.02,0.98,1.58,-1.07,0.14,25.03,29.73,-30.25,0
91908,0.06,0.02,0.98,1.55,-1.06,0.2,25.03,29.73,-30.25,0
91918,0.06,0.02,0.98,1.51,-1.13,0.27,25.03,29.73,-30.25,0
91928,0.06,0.02,0.97,1.57,-1.12,0.27,25.05,29.72,-30.3,0
91940,0.06,0.02,0.98,2.05,-0.77,-0.04,25.05,29.72,-30.3,0
91952,0.06,0.02,0.98,2.27,-0.46,-0.23,25.05,29.72,-30.3,0
91964,0.06,0.02,0.98,2.46,-0.23,-0.34,25.05,29.72,-30.3,0
91976,0.06,0.02,0.99,2.13,-0.37,-0.25,24.99,29.68,-30.52,0
91988,0.06,0.02,0.98,1.62,-0.69,-0.1,24.99,29.68,-30.52,0
91999,0.06,0.02,0.98,1.1,-1.41,0.17,24.99,29.68,-30.52,0
92010,0.06,0.02,0.98,1.28,-1.52,0.28,24.99,29.68,-30.52,0
92020,0.06,0.02,0.98,1.56,-1.33,0.35,24.99,29.68,-30.52,0
92031,0.06,0.02,0.98,1.79,-1.07,0.34,25.07,29.71,-30.67,0
92042,0.06,0.02,0.98,1.91,-0.82,0.08,25.07,29.71,-30.67,0
92052,0.06,0.02,0.98,1.86,-0.72,-0.07,25.07,29.71,-30.67,0
92064,0.06,0.02,0.98,1.78,-0.6,-0.14,25.07,29.71,-30.67,0
92076,0.06,0.02,0.98,1.54,-0.75,-0.04,25.14,29.63,-30.62,0
92087,0.06,0.02,0.98,1.47,-0.95,0.02,25.14,29.63,-30.62,0
92098,0.06,0.02,0.98,1.39,-1.02,0.04,25.14,29.63,-30.62,0
92112,0.06,0.02,0.98,1.17,-1.08,-0.0,25.14,29.63,-30.62,0
92123,0.06,0.02,0.98,1.2,-1.09,-0.07,25.11,29.72,-30.55,0
92134,0.06,0.02,0.98,1.22,-1.1,-0.15,25.11,29.72,-30.55,0
92146,0.06,0.02,0.98,0.72,-1.21,-0.32,25.11,29.72,-30.55,0
92158,0.06,0.02,0.98,0.55,-1.16,-0.48,25.11,29.72,-30.55,0
92170,0.06,0.02,0.98,0.73,-0.99,-0.62,25.11,29.72,-30.55,0
92182,0.06,0.02,0.98,0.98,-1.02,-0.62,25.03,29.6,-30.29,0
92194,0.06,0.02,0.98,1.13,-1.13,-0.58,25.03,29.6,-30.29,0
92205,0.06,0.02,0.98,1.1,-1.32,-0.49,25.03,29.6,-30.29,0
92216,0.06,0.02,0.98,1.05,-1.25,-0.56,25.03,29.6,-30.29,0
92227,0.06,0.02,0.98,1.03,-1.15,-0.65,25.08,29.6,-30.18,0
92237,0.06,0.02,0.98,1.03,-1.07,-0.78,25.08,29.6,-30.18,0
92247,0.06,0.02,0.98,0.9,-0.9,-0.83,25.08,29.6,-30.18,0
92259,0.06,0.02,0.98,0.81,-0.83,-0.88,25.08,29.6,-30.18,0
92269,0.06,0.02,0.98,0.9,-1.08,-0.94,25.08,29.6,-30.18,0
92280,0.06,0.02,0.98,1.04,-1.4,-0.99,25.16,29.54,-30.14,0
92291,0.06,0.02,0.98,1.2,-1.59,-1.02,25.16,29.54,-30.14,0
92302,0.06,0.02,0.97,1.04,-1.44,-1.04,25.16,29.54,-30.14,0
92312,0.05,0.02,0.98,0.84,-1.18,-1.0,25.16,29.54,-30.14,0
92323,0.06,0.02,0.98,0.67,-0.85,-0.95,25.18,29.58,-30.26,0
92334,0.06,0.02,0.98,0.4,-0.75,-1.04,25.18,29.58,-30.26,0
92345,0.06,0.03,0.98,0.5,-0.87,-1.15,25.18,29.58,-30.26,0
92356,0.06,0.03,0.98,0.82,-1.24,-1.14,25.18,29.58,-30.26,0
92370,0.06,0.03,0.97,1.84,-1.86,-0.9,25.18,29.58,-30.26,0
92381,0.05,0.03,0.97,2.19,-1.66,-0.7,25.16,29.47,-30.37,0
92392,0.05,0.03,0.97,2.33,-1.16,-0.55,25.16,29.47,-30.37,0
92404,0.06,0.02,0.97,2.09,-0.23,-0.54,25.16,29.47,-30.37,0
92416,0.06,0.03,0.97,1.79,-0.13,-0.62,25.16,29.47,-30.37,0
92427,0.06,0.03,0.98,1.6,-0.34,-0.61,25.16,29.41,-30.35,0
92439,0.06,0.03,0.98,1.67,-0.81,-0.38,25.16,29.41,-30.35,0
92450,0.06,0.03,0.97,1.65,-0.67,-0.31,25.16,29.41,-30.35,0
92464,0.06,0.02,0.98,1.4,-0.05,-0.65,25.16,29.41,-30.35,0
92475,0.06,0.03,0.98,1.21,0.24,-0.68,25.05,29.38,-30.44,0
92486,0.06,0.03,0.98,1.07,0.19,-0.64,25.05,29.38,-30.44,0
92498,0.06,0.03,0.98,1.15,-0.54,-0.33,25.05,29.38,-30.44,0
92510,0.06,0.02,0.98,1.16,-0.85,-0.17,25.05,29.38,-30.44,0
92524,0.06,0.02,0.98,0.55,-0.77,-0.2,25.08,29.42,-30.58,0
92534,0.06,0.02,0.98,0.37,-0.63,-0.37,25.08,29.42,-30.58,0
92544,0.06,0.02,0.98,0.33,-0.65,-0.53,25.08,29.42,-30.58,0
92554,0.06,0.02,0.98,0.35,-0.94,-0.63,25.08,29.42,-30.58,0
92567,0.06,0.02,0.98,0.48,-1.66,-0.78,25.08,29.42,-30.58,0
92578,0.06,0.02,0.98,0.56,-1.85,-0.78,24.99,29.39,-30.83,0
92589,0.06,0.02,0.97,0.63,-1.87,-0.73,24.99,29.39,-30.83,0
92601,0.06,0.03,0.97,0.8,-1.97,-0.57,24.99,29.39,-30.83,0
92613,0.06,0.03,0.97,1.0,-2.06,-0.44,24.99,29.39,-30.83,0
92624,0.06,0.03,0.97,1.3,-2.02,-0.32,25.04,29.32,-30.95,0
92636,0.06,0.03,0.97,2.12,-1.51,-0.23,25.04,29.32,-30.95,0
92646,0.06,0.03,0.98,2.43,-1.29,-0.29,25.04,29.32,-30.95,0
92656,0.06,0.03,0.98,2.69,-1.34,-0.31,25.04,29.32,-30.95,0
92666,0.06,0.03,0.98,2.82,-1.62,-0.39,25.04,29.32,-30.95,0
92679,0.05,0.03,0.97,2.9,-2.0,-0.5,25.04,29.26,-30.98,0
92689,0.05,0.03,0.97,3.1,-1.79,-0.53,25.04,29.26,-30.98,0
92699,0.05,0.03,0.98,3.3,-1.44,-0.52,25.04,29.26,-30.98,0
92709,0.05,0.03,0.98,3.38,-1.27,-0.34,25.04,29.26,-30.98,0
92719,0.05,0.03,0.98,3.31,-1.24,-0.14,25.04,29.26,-30.98,0
92732,0.05,0.03,0.97,3.06,-0.99,0.13,24.95,29.19,-30.67,0
92743,0.05,0.02,0.97,2.97,-0.76,0.17,24.95,29.19,-30.67,0
92756,0.06,0.02,0.98,2.38,-0.35,0.01,24.95,29.19,-30.67,0
92768,0.06,0.02,0.98,2.03,-0.45,-0.08,24.95,29.19,-30.67,0
92779,0.06,0.03,0.98,1.77,-0.7,-0.11,24.85,29.13,-30.73,0
92791,0.05,0.03,0.97,1.6,-0.9,0.11,24.85,29.13,-30.73,0
92802,0.06,0.03,0.97,1.7,-0.62,0.15,24.85,29.13,-30.73,0
92815,0.06,0.03,0.98,2.17,0.01,0.21,24.85,29.13,-30.73,0
92827,0.06,0.03,0.98,2.43,0.06,0.29,24.76,29.04,-30.75,0
92838,0.06,0.02,0.98,2.57,-0.04,0.29,24.76,29.04,-30.75,0
92849,0.06,0.02,0.98,2.1,-0.31,0.12,24.76,29.04,-30.75,0
92860,0.06,0.02,0.98,1.83,-0.62,0.13,24.76,29.04,-30.75,0
92870,0.06,0.02,0.98,1.68,-0.93,0.17,24.76,29.04,-30.75,0
92881,0.06,0.02,0.98,1.74,-1.09,0.23,24.72,28.99,-30.61,0
92891,0.06,0.02,0.98,1.91,-1.12,0.25,24.72,28.99,-30.61,0
92903,0.06,0.02,0.97,2.13,-0.95,0.23,24.72,28.99,-30.61,0
92914,0.06,0.02,0.97,2.11,-0.8,0.21,24.72,28.99,-30.61,0
92925,0.06,0.02,0.97,2.03,-0.57,0.18,24.82,29.0,-30.79,0
92937,0.06,0.02,0.97,2.44,0.12,-0.02,24.82,29.0,-30.79,0
92948,0.06,0.02,0.98,2.77,0.53,-0.12,24.82,29.0,-30.79,0
92961,0.06,0.02,0.98,2.96,0.53,-0.14,24.82,29.0,-30.79,0
92973,0.06,0.02,0.98,2.77,0.12,-0.07,24.82,28.94,-30.76,0
92984,0.06,0.02,0.98,2.44,-0.4,0.01,24.82,28.94,-30.76,0
92995,0.06,0.02,0.98,1.76,-0.76,0.19,24.82,28.94,-30.76,0
93006,0.06,0.02,0.97,1.79,-0.59,0.2,24.82,28.94,-30.76,0
93016,0.06,0.02,0.98,2.0,-0.41,0.14,24.82,28.94,-30.76,0
93027,0.06,0.02,0.98,2.26,-0.33,0.06,24.94,28.89,-30.62,0
93037,0.06,0.02,0.98,2.39,-0.41,0.02,24.94,28.89,-30.62,0
93049,0.06,0.02,0.98,2.33,-0.56,0.09,24.94,28.89,-30.62,0
93059,0.06,0.02,0.98,2.61,-0.43,-0.01,24.94,28.89,-30.62,0
93069,0.06,0.02,0.98,2.58,-0.45,0.03,24.94,28.89,-30.62,0
93080,0.06,0.02,0.98,2.18,-0.62,0.19,24.87,28.91,-30.71,0
93091,0.06,0.02,0.98,1.94,-0.72,0.22,24.87,28.91,-30.71,0
93103,0.06,0.02,0.98,1.86,-0.76,0.17,24.87,28.91,-30.71,0
93115,0.06,0.02,0.98,1.84,-0.88,0.07,24.87,28.91,-30.71,0
93127,0.06,0.02,0.98,1.93,-0.89,0.1,24.91,28.98,-30.74,0
93139,0.06,0.02,0.98,1.99,-0.92,0.14,24.91,28.98,-30.74,0
93150,0.06,0.02,0.98,2.08,-1.15,0.26,24.91,28.98,-30.74,0
93161,0.06,0.01,0.98,2.19,-1.16,0.31,24.91,28.98,-30.74,0
93171,0.06,0.01,0.97,2.16,-1.01,0.33,24.92,28.95,-30.57,0
93184,0.06,0.01,0.97,1.82,-0.27,0.07,24.92,28.95,-30.57,0
93195,0.07,0.02,0.98,1.81,-0.13,-0.18,24.92,28.95,-30.57,0
93206,0.07,0.02,0.98,1.84,-0.29,-0.3,24.92,28.95,-30.57,0
93221,0.06,0.02,0.98,1.79,-1.03,-0.11,24.97,28.9,-30.5,0
93232,0.06,0.02,0.98,1.46,-1.24,0.05,24.97,28.9,-30.5,0
93246,0.06,0.02,0.98,0.83,-1.17,0.27,24.97,28.9,-30.5,0
93257,0.06,0.02,0.98,0.89,-0.93,0.25,24.97,28.9,-30.5,0
93271,0.06,0.02,0.98,1.21,-0.27,-0.01,25.09,28.96,-30.52,0
93283,0.06,0.02,0.98,1.31,-0.25,-0.18,25.09,28.96,-30.52,0
93293,0.06,0.02,0.98,1.21,-0.45,-0.3,25.09,28.96,-30.52,0
93303,0.06,0.02,0.98,1.04,-0.62,-0.3,25.09,28.96,-30.52,0
93315,0.06,0.02,0.98,1.15,-0.68,-0.2,25.09,28.96,-30.52,0
93326,0.06,0.02,0.98,1.24,-0.72,-0.06,25.01,28.98,-30.54,0
93336,0.06,0.02,0.98,1.27,-0.83,0.06,25.01,28.98,-30.54,0
93349,0.06,0.02,0.98,1.23,-0.93,0.18,25.01,28.98,-30.54,0
93360,0.06,0.02,0.98,1.31,-0.89,0.12,25.01,28.98,-30.54,0
93371,0.06,0.02,0.98,1.5,-0.87,0.02,25.07,28.99,-30.45,0
93383,0.06,0.02,0.98,1.93,-0.95,-0.11,25.07,28.99,-30.45,0
93395,0.06,0.02,0.97,1.98,-0.78,-0.13,25.07,28.99,-30.45,0
93405,0.06,0.02,0.97,1.97,-0.64,-0.02,25.07,28.99,-30.45,0
93416,0.06,0.02,0.98,1.95,-0.63,0.21,25.07,28.99,-30.45,0
93428,0.06,0.02,0.98,1.64,-0.81,0.31,25.02,29.07,-30.62,0
93438,0.06,0.02,0.98,1.06,-1.13,0.34,25.02,29.07,-30.62,0
93448,0.06,0.02,0.98,0.63,-1.35,0.29,25.02,29.07,-30.62,0
93459,0.06,0.02,0.98,0.63,-1.18,0.24,25.02,29.07,-30.62,0
93470,0.06,0.02,0.98,1.03,-0.9,0.17,24.91,29.03,-30.56,0
93482,0.06,0.02,0.98,1.53,-0.66,0.05,24.91,29.03,-30.56,0
93495,0.07,0.02,0.98,1.88,-0.44,-0.06,24.91,29.03,-30.56,0
93507,0.06,0.02,0.98,1.98,-0.58,-0.09,24.91,29.03,-30.56,0
93522,0.06,0.02,0.98,2.41,-0.87,-0.13,24.93,29.09,-30.52,0
93533,0.06,0.01,0.98,2.31,-1.15,-0.07,24.93,29.09,-30.52,0
93544,0.06,0.01,0.98,1.27,-1.68,0.01,24.93,29.09,-30.52,0
93555,0.06,0.02,0.98,0.94,-1.85,-0.0,24.93,29.09,-30.52,0
93567,0.06,0.02,0.98,1.0,-1.91,-0.03,24.93,29.09,-30.52,0
93579,0.06,0.02,0.98,1.78,-1.89,0.03,24.99,29.12,-30.74,0
93590,0.06,0.02,0.97,2.2,-1.88,0.05,24.99,29.12,-30.74,0
93600,0.06,0.02,0.97,2.49,-1.76,0.12,24.99,29.12,-30.74,0
93610,0.06,0.02,0.97,2.56,-1.67,0.16,24.99,29.12,-30.74,0
93621,0.06,0.02,0.97,2.5,-1.66,0.13,24.94,29.15,-30.82,0
93633,0.06,0.02,0.97,2.46,-1.66,-0.09,24.94,29.15,-30.82,0
93644,0.06,0.02,0.97,2.4,-1.63,-0.13,24.94,29.15,-30.82,0
93657,0.06,0.02,0.98,2.3,-1.28,-0.0,24.94,29.15,-30.82,0
93668,0.06,0.01,0.98,2.08,-1.05,0.02,24.94,29.15,-30.82,0
93678,0.06,0.01,0.98,1.79,-1.02,0.02,24.84,29.09,-30.78,0
93692,0.06,0.01,0.97,1.18,-1.46,-0.05,24.84,29.09,-30.78,0
93704,0.06,0.02,0.97,1.06,-1.41,-0.15,24.84,29.09,-30.78,0
93716,0.06,0.02,0.97,1.55,-0.02,-0.61,24.84,29.09,-30.78,0
93728,0.07,0.02,0.98,2.0,0.49,-0.77,24.75,29.01,-30.75,0
93740,0.07,0.02,0.99,2.31,0.41,-0.78,24.75,29.01,-30.75,0
93751,0.07,0.02,0.99,1.84,-0.59,-0.36,24.75,29.01,-30.75,0
93762,0.07,0.01,0.98,1.34,-0.91,-0.2,24.75,29.01,-30.75,0
93773,0.07,0.01,0.97,1.14,-0.91,-0.3,24.9,29.1,-30.48,0
93783,0.07,0.01,0.97,1.18,-0.66,-0.57,24.9,29.1,-30.48,0
93794,0.06,0.01,0.98,1.83,0.22,-1.27,24.9,29.1,-30.48,0
93804,0.06,0.01,0.98,2.16,0.39,-1.61,24.9,29.1,-30.48,0
93816,0.06,0.01,0.98,2.43,0.12,-1.83,24.9,29.1,-30.48,0
93828,0.06,0.01,0.98,2.76,-0.73,-1.97,25.04,29.16,-30.35,0
93839,0.06,0.01,0.98,2.75,-0.72,-1.97,25.04,29.16,-30.35,0
93850,0.06,0.01,0.98,2.52,-0.55,-1.98,25.04,29.16,-30.35,0
93861,0.06,0.01,0.98,2.23,-0.47,-2.04,25.04,29.16,-30.35,0
93874,0.07,0.01,0.98,1.91,-0.73,-2.37,25.03,29.17,-30.33,0
93884,0.06,0.02,0.98,1.81,-0.91,-2.56,25.03,29.17,-30.33,0
93894,0.06,0.02,0.97,1.75,-0.97,-2.75,25.03,29.17,-30.33,0
93904,0.06,0.03,0.97,1.96,-0.96,-2.79,25.03,29.17,-30.33,0
93916,0.06,0.03,0.97,2.94,-0.37,-2.54,25.03,29.17,-30.33,0
93927,0.06,0.03,0.97,3.39,0.32,-2.31,25.05,29.15,-30.41,0
93938,0.06,0.02,0.98,3.34,0.51,-2.22,25.05,29.15,-30.41,0
93950,0.06,0.02,0.98,2.25,0.58,-1.94,25.05,29.15,-30.41,0
93961,0.07,0.02,0.98,1.81,0.51,-1.9,25.05,29.15,-30.41,0
93972,0.07,0.02,0.98,1.71,0.32,-1.91,24.94,29.26,-30.41,0
93984,0.06,0.02,0.98,2.01,-0.16,-1.72,24.94,29.26,-30.41,0
93996,0.06,0.02,0.98,2.0,0.04,-1.55,24.94,29.26,-30.41,0
94008,0.06,0.02,0.97,1.9,0.41,-1.14,24.94,29.26,-30.41,0
94020,0.06,0.02,0.98,1.95,0.21,-1.04,24.8,29.21,-30.46,0
94032,0.07,0.02,0.98,1.88,-0.04,-0.97,24.8,29.21,-30.46,0
94043,0.07,0.02,0.97,1.54,-0.55,-1.01,24.8,29.21,-30.46,0
94054,0.06,0.02,0.97,1.58,-0.76,-1.05,24.8,29.21,-30.46,0
94065,0.06,0.02,0.97,1.68,-0.76,-0.97,24.8,29.21,-30.46,0
94078,0.06,0.02,0.97,1.93,-0.22,-0.65,24.86,29.36,-30.49,0
94090,0.06,0.01,0.97,2.03,0.03,-0.55,24.86,29.36,-30.49,0
94102,0.06,0.01,0.97,1.94,0.28,-0.39,24.86,29.36,-30.49,0
94113,0.07,0.01,0.98,1.69,0.27,-0.39,24.86,29.36,-30.49,0
94124,0.07,0.01,0.98,1.22,0.25,-0.47,24.8,29.45,-30.49,0
94137,0.07,0.01,0.98,0.69,-0.01,-0.61,24.8,29.45,-30.49,0
94148,0.07,0.02,0.98,0.76,-0.12,-0.63,24.8,29.45,-30.49,0
94159,0.07,0.02,0.98,0.99,-0.2,-0.58,24.8,29.45,-30.49,0
94170,0.06,0.02,0.98,1.21,-0.24,-0.47,24.63,29.51,-30.35,0
94182,0.06,0.02,0.98,1.35,-0.25,-0.12,24.63,29.51,-30.35,0
94194,0.07,0.01,0.98,1.19,-0.15,-0.04,24.63,29.51,-30.35,0
94208,0.07,0.02,0.98,0.84,-0.14,0.07,24.63,29.51,-30.35,0
94218,0.07,0.02,0.98,0.85,-0.38,0.12,24.63,29.51,-30.35,0
94229,0.07,0.02,0.98,1.02,-0.65,0.19,24.66,29.7,-30.43,0
94239,0.07,0.02,0.97,1.3,-0.71,0.26,24.66,29.7,-30.43,0
94250,0.07,0.02,0.97,2.07,-0.33,0.3,24.66,29.7,-30.43,0
94262,0.07,0.02,0.97,2.33,0.04,0.33,24.66,29.7,-30.43,0
94273,0.07,0.01,0.98,2.32,0.28,0.38,24.59,29.79,-30.27,0
94284,0.07,0.01,0.98,1.69,0.07,0.54,24.59,29.79,-30.27,0
94296,0.07,0.01,0.98,1.27,-0.26,0.63,24.59,29.79,-30.27,0
94306,0.07,0.01,0.98,1.05,-0.55,0.64,24.59,29.79,-30.27,0
94316,0.07,0.01,0.98,1.02,-0.63,0.58,24.59,29.79,-30.27,0
94328,0.07,0.01,0.98,1.11,-0.49,0.45,24.54,29.8,-30.32,0
94340,0.07,0.01,0.98,0.96,-0.67,0.46,24.54,29.8,-30.32,0
94353,0.07,0.01,0.98,0.25,-0.95,0.57,24.54,29.8,-30.32,0
94365,0.07,0.01,0.98,-0.06,-0.93,0.59,24.54,29.8,-30.32,0
94376,0.07,0.01,0.98,-0.22,-1.07,0.5,24.46,29.79,-30.11,0
94388,0.07,0.01,0.98,0.06,-1.29,0.16,24.46,29.79,-30.11,0
94399,0.07,0.01,0.98,0.49,-1.1,0.02,24.46,29.79,-30.11,0
94412,0.07,0.01,0.98,1.3,-0.96,-0.12,24.46,29.79,-30.11,0
94424,0.07,0.01,0.98,1.28,-1.26,-0.11,24.55,29.75,-30.02,0
94436,0.07,0.01,0.98,1.0,-1.6,-0.06,24.55,29.75,-30.02,0
94446,0.07,0.01,0.98,0.45,-1.65,-0.0,24.55,29.75,-30.02,0
94457,0.07,0.01,0.97,0.37,-1.36,-0.1,24.55,29.75,-30.02,0
94468,0.07,0.02,0.98,0.45,-0.98,-0.24,24.56,29.78,-30.3,0
94482,0.07,0.02,0.98,0.51,-0.81,-0.55,24.56,29.78,-30.3,0
94493,0.07,0.02,0.98,0.39,-1.18,-0.71,24.56,29.78,-30.3,0
94505,0.07,0.02,0.98,0.26,-1.62,-0.77,24.56,29.78,-30.3,0
94517,0.07,0.02,0.97,0.13,-1.7,-0.8,24.56,29.78,-30.3,0
94528,0.07,0.03,0.98,0.1,-1.27,-0.7,24.52,29.8,-30.12,0
94539,0.07,0.03,0.98,0.05,-0.94,-0.59,24.52,29.8,-30.12,0
94552,0.07,0.03,0.98,0.14,-1.03,3.04,24.52,29.8,-30.12,0
94563,0.07,0.03,0.98,0.23,-1.27,2.43,24.52,29.8,-30.12,0
94575,0.07,0.03,0.98,1.37,-2.3,1.61,24.57,29.93,-29.86,0
94586,0.06,0.03,0.98,2.11,-2.85,1.33,24.57,29.93,-29.86,0
94597,0.06,0.03,0.97,2.4,-2.94,1.21,24.57,29.93,-29.86,0
94611,0.06,0.02,0.97,2.08,-2.11,1.08,24.57,29.93,-29.86,0
94622,0.07,0.02,0.97,1.81,-1.87,0.89,24.45,30.0,-29.9,0
94633,0.06,0.02,0.97,1.65,-1.76,0.68,24.45,30.0,-29.9,0
94645,0.06,0.02,0.97,1.9,-1.33,0.36,24.45,30.0,-29.9,0
94657,0.07,0.02,0.97,2.07,-1.28,0.32,24.45,30.0,-29.9,0
94667,0.07,0.02,0.98,1.96,-1.41,0.33,24.45,30.0,-29.9,0
94680,0.06,0.02,0.98,1.37,-1.64,0.35,24.57,29.82,-29.92,0
94691,0.06,0.02,0.98,1.15,-1.47,0.35,24.57,29.82,-29.92,0
94702,0.06,0.02,0.98,1.07,-1.26,0.33,24.57,29.82,-29.92,0
94714,0.07,0.02,0.98,1.26,-1.09,0.33,24.57,29.82,-29.92,0
94725,0.07,0.02,0.98,1.53,-1.07,0.32,24.55,29.85,-29.82,0
94738,0.07,0.02,0.98,2.26,-1.27,0.19,24.55,29.85,-29.82,0
94749,0.07,0.01,0.98,2.38,-1.41,0.17,24.55,29.85,-29.82,0
94761,0.07,0.01,0.97,2.3,-1.39,0.14,24.55,29.85,-29.82,0
94772,0.07,0.01,0.97,1.98,-1.04,0.0,24.59,29.89,-29.77,0
94783,0.07,0.01,0.98,1.85,-0.77,-0.04,24.59,29.89,-29.77,0
94795,0.07,0.01,0.98,1.79,-0.65,-0.14,24.59,29.89,-29.77,0
94809,0.06,0.01,0.98,1.53,-0.95,-0.25,24.59,29.89,-29.77,0
94819,0.06,0.01,0.98,1.39,-1.09,-0.21,24.7,29.94,-29.79,0
94831,0.07,0.01,0.98,1.3,-1.09,-0.18,24.7,29.94,-29.79,0
94843,0.07,0.02,0.98,1.16,-0.85,-0.22,24.7,29.94,-29.79,0
94855,0.07,0.02,0.99,1.09,-0.81,-0.23,24.7,29.94,-29.79,0
94868,0.07,0.02,0.99,1.13,-1.24,-0.27,24.79,29.93,-29.7,0
94879,0.07,0.02,0.98,1.36,-1.6,-0.29,24.79,29.93,-29.7,0
94891,0.06,0.02,0.98,1.55,-1.76,-0.28,24.79,29.93,-29.7,0
94903,0.06,0.02,0.97,1.49,-1.35,-0.17,24.79,29.93,-29.7,0
94914,0.06,0.02,0.97,1.29,-1.1,-0.15,24.79,29.93,-29.7,0
94925,0.07,0.02,0.98,1.12,-0.91,-0.21,24.88,29.94,-29.78,0
94937,0.07,0.03,0.98,1.07,-0.76,-0.35,24.88,29.94,-29.78,0
94949,0.07,0.03,0.98,1.31,-0.92,-0.37,24.88,29.94,-29.78,0
94962,0.07,0.03,0.98,1.92,-1.18,-0.13,24.88,29.94,-29.78,0
94974,0.06,0.03,0.98,2.09,-1.03,0.06,24.91,30.01,-29.79,0
94985,0.06,0.02,0.98,2.22,-0.84,0.25,24.91,30.01,-29.79,0
94996,0.06,0.02,0.98,2.37,-0.46,0.36,24.91,30.01,-29.79,0
95007,0.06,0.02,0.98,2.28,-0.44,0.22,24.91,30.01,-29.79,0
95018,0.07,0.02,0.98,2.1,-0.55,0.08,24.88,30.05,-29.93,0
95028,0.07,0.02,0.98,1.95,-0.78,0.04,24.88,30.05,-29.93,0
95039,0.07,0.02,0.98,1.95,-1.11,0.11,24.88,30.05,-29.93,0
95050,0.07,0.02,0.97,2.08,-1.14,0.16,24.88,30.05,-29.93,0
95061,0.07,0.02,0.97,2.27,-0.99,0.22,24.88,30.05,-29.93,0
95073,0.07,0.02,0.97,2.7,-0.78,0.32,24.95,29.95,-30.14,0
95084,0.06,0.02,0.97,2.9,-0.72,0.29,24.95,29.95,-30.14,0
95094,0.07,0.01,0.97,2.91,-0.61,0.21,24.95,29.95,-30.14,0
95104,0.07,0.01,0.97,2.72,-0.52,0.1,24.95,29.95,-30.14,0
95114,0.07,0.01,0.98,2.37,-0.46,-0.01,24.95,29.95,-30.14,0
95127,0.07,0.02,0.98,1.58,-0.55,-0.02,24.92,29.91,-30.18,0
95137,0.07,0.02,0.98,1.38,-0.73,0.05,24.92,29.91,-30.18,0
95147,0.06,0.02,0.98,1.29,-0.82,0.17,24.92,29.91,-30.18,0
95157,0.06,0.02,0.98,1.36,-0.82,0.28,24.92,29.91,-30.18,0
95169,0.06,0.02,0.98,1.78,-0.82,0.34,24.93,30.07,-30.15,0
95180,0.06,0.02,0.98,1.92,-0.9,0.27,24.93,30.07,-30.15,0
95192,0.06,0.02,0.98,1.84,-1.05,0.16,24.93,30.07,-30.15,0
95203,0.06,0.02,0.98,1.68,-1.44,0.1,24.93,30.07,-30.15,0
95215,0.06,0.02,0.97,1.66,-1.4,0.13,24.93,30.07,-30.15,0
95226,0.06,0.02,0.98,1.72,-1.16,0.17,25.03,30.08,-30.07,0
95238,0.07,0.02,0.98,1.69,-0.76,0.4,25.03,30.08,-30.07,0
95249,0.07,0.02,0.98,1.66,-0.9,0.5,25.03,30.08,-30.07,0
95262,0.07,0.02,0.98,1.88,-1.14,0.41,25.03,30.08,-30.07,0
95274,0.07,0.02,0.97,2.03,-1.06,0.34,25.08,30.07,-29.86,0
95284,0.07,0.02,0.97,2.13,-0.88,0.26,25.08,30.07,-29.86,0
95294,0.07,0.02,0.97,2.15,-0.69,0.19,25.08,30.07,-29.86,0
95307,0.07,0.01,0.97,1.96,-0.57,0.22,25.08,30.07,-29.86,0
95318,0.07,0.01,0.97,1.77,-0.62,0.24,25.07,29.98,-29.75,0
95328,0.07,0.01,0.98,1.68,-0.67,0.24,25.07,29.98,-29.75,0
95338,0.07,0.01,0.98,1.72,-0.57,0.17,25.07,29.98,-29.75,0
95350,0.07,0.01,0.98,1.63,-0.41,0.13,25.07,29.98,-29.75,0
95361,0.07,0.01,0.98,1.5,-0.39,0.13,25.07,29.98,-29.75,0
95372,0.07,0.01,0.98,1.52,-0.34,0.1,25.12,29.91,-29.62,0
95384,0.06,0.01,0.98,1.7,-0.36,-0.14,25.12,29.91,-29.62,0
95395,0.07,0.01,0.98,1.62,-0.51,-0.23,25.12,29.91,-29.62,0
95408,0.07,0.01,0.98,1.35,-1.02,-0.23,25.12,29.91,-29.62,0
95420,0.06,0.01,0.98,1.25,-1.12,-0.18,25.14,29.93,-29.74,0
95432,0.06,0.02,0.98,1.11,-1.01,-0.18,25.14,29.93,-29.74,0
95444,0.07,0.02,0.98,1.05,-0.77,-0.15,25.14,29.93,-29.74,0
95455,0.07,0.02,0.99,1.22,-0.94,-0.09,25.14,29.93,-29.74,0
95466,0.07,0.02,0.99,1.4,-1.13,-0.11,25.04,29.92,-29.71,0
95478,0.06,0.02,0.98,1.53,-1.57,-0.21,25.04,29.92,-29.71,0
95490,0.06,0.02,0.98,1.51,-1.69,-0.22,25.04,29.92,-29.71,0
95503,0.06,0.02,0.97,1.8,-1.31,-0.15,25.04,29.92,-29.71,0
95513,0.07,0.02,0.97,1.97,-0.91,-0.03,25.04,29.92,-29.71,0
95524,0.07,0.02,0.97,2.1,-0.77,0.03,24.98,29.98,-29.66,0
95537,0.07,0.02,0.97,1.89,-0.76,0.15,24.98,29.98,-29.66,0
95548,0.07,0.02,0.98,1.69,-0.86,0.22,24.98,29.98,-29.66,0
95558,0.07,0.02,0.98,1.57,-0.98,0.24,24.98,29.98,-29.66,0
95569,0.07,0.02,0.98,1.6,-1.02,0.26,24.92,29.96,-29.71,0
95580,0.06,0.02,0.98,1.99,-0.75,0.37,24.92,29.96,-29.71,0
95591,0.07,0.01,0.98,2.12,-0.53,0.33,24.92,29.96,-29.71,0
95602,0.07,0.01,0.98,2.2,-0.4,0.23,24.92,29.96,-29.71,0
95616,0.07,0.01,0.98,1.96,-0.52,-0.07,24.99,29.81,-29.67,0
95627,0.07,0.01,0.98,1.76,-0.74,-0.13,24.99,29.81,-29.67,0
95637,0.07,0.01,0.99,1.49,-1.01,-0.2,24.99,29.81,-29.67,0
95647,0.07,0.01,0.98,1.09,-1.19,-0.11,24.99,29.81,-29.67,0
95659,0.07,0.01,0.98,0.52,-1.55,0.06,24.99,29.81,-29.67,0
95669,0.07,0.01,0.98,0.56,-1.68,0.06,24.9,29.81,-29.85,0
95681,0.06,0.02,0.97,0.83,-1.67,0.07,24.9,29.81,-29.85,0
95693,0.06,0.02,0.97,1.61,-1.5,0.01,24.9,29.81,-29.85,0
95703,0.06,0.02,0.97,1.9,-1.32,-0.02,24.9,29.81,-29.85,0
95713,0.06,0.02,0.97,1.9,-1.15,-0.02,24.9,29.81,-29.85,0
95724,0.06,0.02,0.98,1.65,-1.1,-0.05,24.93,29.85,-29.92,0
95736,0.07,0.02,0.98,0.89,-1.22,-0.22,24.93,29.85,-29.92,0
95747,0.07,0.02,0.98,0.77,-1.3,-0.28,24.93,29.85,-29.92,0
95759,0.07,0.02,0.98,0.83,-1.42,-0.26,24.93,29.85,-29.92,0
95772,0.06,0.02,0.98,1.17,-1.51,-0.01,24.87,29.86,-29.89,0
95782,0.06,0.02,0.97,1.43,-1.47,0.08,24.87,29.86,-29.89,0
95793,0.06,0.02,0.97,1.61,-1.28,0.14,24.87,29.86,-29.89,0
95805,0.06,0.02,0.97,1.79,-0.81,0.17,24.87,29.86,-29.89,0
95816,0.07,0.02,0.97,1.73,-0.7,0.14,24.9,29.78,-29.86,0
95826,0.07,0.02,0.97,1.67,-0.76,0.17,24.9,29.78,-29.86,0
95836,0.07,0.02,0.97,1.72,-0.98,0.2,24.9,29.78,-29.86,0
95848,0.06,0.02,0.97,2.07,-1.23,0.22,24.9,29.78,-29.86,0
95859,0.06,0.02,0.97,2.22,-1.01,0.24,24.9,29.78,-29.86,0
95870,0.06,0.01,0.97,2.31,-0.72,0.19,24.83,29.84,-30.06,0
95882,0.07,0.01,0.98,2.06,-0.37,0.11,24.83,29.84,-30.06,0
95892,0.07,0.01,0.98,1.8,-0.41,0.09,24.83,29.84,-30.06,0
95902,0.07,0.01,0.99,1.6,-0.59,0.04,24.83,29.84,-30.06,0
95912,0.07,0.01,0.98,1.47,-0.78,-0.02,24.83,29.84,-30.06,0
95925,0.07,0.01,0.98,1.49,-0.96,-0.18,24.88,29.88,-30.19,0
95935,0.07,0.02,0.98,1.58,-0.93,-0.21,24.88,29.88,-30.19,0
95945,0.07,0.02,0.98,1.91,-0.94,-0.24,24.88,29.88,-30.19,0
95955,0.06,0.02,0.98,2.39,-0.99,-0.24,24.88,29.88,-30.19,0
95966,0.06,0.02,0.97,2.7,-1.01,-0.24,24.9,29.86,-30.12,0
95977,0.07,0.01,0.98,2.67,-0.95,-0.23,24.9,29.86,-30.12,0
95987,0.07,0.02,0.98,2.15,-0.69,-0.17,24.9,29.86,-30.12,0
95997,0.07,0.02,0.98,1.63,-0.47,-0.1,24.9,29.86,-30.12,0
96009,0.07,0.02,0.98,1.09,-0.73,-0.12,24.9,29.86,-30.12,0
96021,0.07,0.02,0.98,1.01,-1.0,-0.18,24.89,29.96,-30.17,0
96033,0.07,0.02,0.98,1.01,-1.08,-0.25,24.89,29.96,-30.17,0
96045,0.06,0.02,0.98,1.05,-1.21,-0.22,24.89,29.96,-30.17,0
96056,0.06,0.02,0.97,1.16,-1.46,-0.18,24.89,29.96,-30.17,0
96067,0.06,0.02,0.97,1.28,-1.51,-0.1,24.93,30.02,-30.18,0
96079,0.07,0.02,0.97,1.17,-0.88,-0.01,24.93,30.02,-30.18,0
96091,0.07,0.02,0.98,1.16,-0.66,-0.01,24.93,30.02,-30.18,0
96103,0.07,0.02,0.98,1.68,-0.67,0.07,24.93,30.02,-30.18,0
96115,0.07,0.02,0.99,1.86,-0.93,0.12,24.82,29.99,-30.14,0
96127,0.07,0.02,0.98,1.9,-1.28,0.19,24.82,29.99,-30.14,0
96138,0.06,0.02,0.98,1.6,-1.44,0.32,24.82,29.99,-30.14,0
96149,0.06,0.02,0.97,1.5,-1.13,0.33,24.82,29.99,-30.14,0
96160,0.06,0.02,0.97,1.58,-0.91,0.26,24.82,29.99,-30.14,0
96172,0.06,0.02,0.98,1.89,-0.88,0.07,24.79,30.15,-30.37,0
96183,0.07,0.02,0.98,1.9,-0.97,0.03,24.79,30.15,-30.37,0
96195,0.07,0.02,0.98,1.66,-1.08,0.02,24.79,30.15,-30.37,0
96208,0.07,0.02,0.98,1.13,-0.9,0.08,24.79,30.15,-30.37,0
96219,0.07,0.02,0.98,1.04,-0.77,0.05,24.8,30.35,-30.31,0
96231,0.07,0.02,0.98,1.04,-0.8,0.04,24.8,30.35,-30.31,0
96243,0.07,0.02,0.98,1.04,-0.81,0.08,24.8,30.35,-30.31,0
96254,0.07,0.02,0.98,1.11,-0.9,0.13,24.8,30.35,-30.31,0
96265,0.06,0.02,0.98,1.29,-1.05,0.13,24.73,30.49,-30.63,0
96277,0.06,0.02,0.98,1.98,-0.98,0.12,24.73,30.49,-30.63,0
96289,0.06,0.02,0.98,2.14,-0.75,0.05,24.73,30.49,-30.63,0
96302,0.07,0.02,0.98,2.05,-0.93,0.07,24.73,30.49,-30.63,0
96315,0.07,0.02,0.98,2.07,-1.11,0.07,24.85,30.54,-30.49,0
96325,0.07,0.02,0.98,2.19,-1.16,0.02,24.85,30.54,-30.49,0
96336,0.07,0.02,0.98,2.15,-1.1,-0.07,24.85,30.54,-30.49,0
96347,0.07,0.02,0.98,2.1,-1.09,-0.04,24.85,30.54,-30.49,0
96358,0.07,0.02,0.98,2.06,-1.04,0.04,24.85,30.54,-30.49,0
96371,0.07,0.02,0.98,2.05,-1.0,0.18,24.85,30.61,-30.49,0
96383,0.07,0.02,0.98,2.04,-0.88,0.18,24.85,30.61,-30.49,0
96395,0.07,0.02,0.98,1.99,-0.87,0.05,24.85,30.61,-30.49,0
96406,0.07,0.02,0.98,2.09,-1.07,-0.0,24.85,30.61,-30.49,0
96417,0.07,0.02,0.98,2.13,-1.08,-0.0,24.92,30.59,-30.51,0
96430,0.07,0.01,0.98,1.85,-0.79,0.02,24.92,30.59,-30.51,0
96441,0.07,0.02,0.98,1.71,-0.83,0.07,24.92,30.59,-30.51,0
96452,0.07,0.02,0.98,1.67,-0.92,0.15,24.92,30.59,-30.51,0
96467,0.06,0.01,0.98,1.61,-0.93,0.24,25.04,30.63,-30.65,0
96479,0.06,0.01,0.98,1.65,-0.98,0.2,25.04,30.63,-30.65,0
96492,0.07,0.01,0.98,1.66,-1.08,0.1,25.04,30.63,-30.65,0
96504,0.07,0.01,0.98,1.63,-1.26,0.13,25.04,30.63,-30.65,0
96514,0.07,0.01,0.98,1.57,-1.43,0.18,25.09,30.6,-30.73,0
96526,0.07,0.01,0.98,1.39,-1.35,0.17,25.09,30.6,-30.73,0
96538,0.07,0.01,0.98,1.3,-1.16,0.04,25.09,30.6,-30.73,0
96551,0.07,0.02,0.98,1.06,-1.01,-0.18,25.09,30.6,-30.73,0
96563,0.07,0.02,0.98,0.95,-1.08,-0.18,25.09,30.6,-30.73,0
96574,0.07,0.02,0.98,0.91,-1.29,-0.1,24.9,30.43,-30.53,0
96586,0.06,0.03,0.97,1.37,-1.43,0.01,24.9,30.43,-30.53,0
96598,0.06,0.02,0.97,1.82,-1.32,0.06,24.9,30.43,-30.53,0
96610,0.06,0.02,0.97,2.72,-1.08,-0.08,24.9,30.43,-30.53,0
96622,0.06,0.02,0.97,3.33,-0.91,-0.21,24.85,30.43,-30.7,0
96633,0.07,0.02,0.98,4.05,-0.72,-0.42,24.85,30.43,-30.7,0
96644,0.07,0.02,0.98,4.17,-0.39,-0.33,24.85,30.43,-30.7,0
96656,0.07,0.01,0.99,3.52,-0.43,-0.06,24.85,30.43,-30.7,0
96666,0.07,0.01,0.99,2.66,-0.6,0.22,24.84,30.42,-30.71,0
96679,0.07,0.01,0.98,1.62,-1.11,0.45,24.84,30.42,-30.71,0
96690,0.06,0.01,0.98,1.52,-1.16,0.32,24.84,30.42,-30.71,0
96701,0.06,0.01,0.97,1.69,-1.08,0.2,24.84,30.42,-30.71,0
96716,0.06,0.01,0.97,2.46,-0.97,-0.08,24.9,30.41,-30.81,0
96728,0.06,0.01,0.97,2.51,-0.98,-0.07,24.9,30.41,-30.81,0
96741,0.07,0.01,0.97,2.42,-1.06,0.04,24.9,30.41,-30.81,0
96753,0.07,0.01,0.97,2.44,-1.11,0.1,24.9,30.41,-30.81,0
96766,0.07,0.01,0.97,2.74,-1.28,0.22,24.86,30.46,-30.64,0
96777,0.07,0.01,0.97,2.92,-1.27,0.24,24.86,30.46,-30.64,0
96789,0.07,0.01,0.98,2.95,-1.16,0.18,24.86,30.46,-30.64,0
96801,0.07,0.01,0.98,2.75,-1.27,0.06,24.86,30.46,-30.64,0
96812,0.07,0.01,0.98,2.58,-1.45,-0.05,24.86,30.46,-30.64,0
96823,0.07,0.01,0.98,2.44,-1.6,-0.1,24.94,30.51,-30.44,0
96836,0.07,0.01,0.98,2.38,-1.27,-0.22,24.94,30.51,-30.44,0
96847,0.07,0.01,0.98,2.35,-0.98,-0.23,24.94,30.51,-30.44,0
96861,0.07,0.01,0.99,2.24,-0.72,-0.33,24.94,30.51,-30.44,0
96872,0.06,0.01,0.99,2.21,-0.84,-0.41,25.06,30.51,-30.51,0
96883,0.06,0.01,0.99,2.2,-1.02,-0.51,25.06,30.51,-30.51,0
96895,0.06,0.01,0.99,2.47,-1.26,-0.76,25.06,30.51,-30.51,0
96907,0.05,0.01,0.99,2.65,-1.36,-0.86,25.06,30.51,-30.51,0
96918,0.05,0.01,0.98,2.83,-1.45,-0.96,25.03,30.42,-30.53,0
96930,0.06,0.01,0.98,3.99,-1.37,-1.28,25.03,30.42,-30.53,0
96942,0.06,0.01,0.98,4.43,-0.98,-1.4,25.03,30.42,-30.53,0
96952,0.06,0.01,0.98,4.45,-0.8,-1.31,25.03,30.42,-30.53,0
96963,0.06,0.01,0.98,4.2,-1.13,-1.07,25.03,30.4,-30.29,0
96975,0.06,0.01,0.98,4.15,-1.34,-0.9,25.03,30.4,-30.29,0
96987,0.06,0.01,0.98,4.33,-1.41,-0.77,25.03,30.4,-30.29,0
96998,0.06,0.02,0.97,4.9,-0.73,-0.65,25.03,30.4,-30.29,0
97010,0.07,0.02,0.97,5.3,-0.35,-0.71,25.03,30.4,-30.29,0
97021,0.07,0.02,0.97,5.87,-0.15,-0.76,25.08,30.6,-30.38,0
97033,0.07,0.02,0.97,6.94,0.13,-0.58,25.08,30.6,-30.38,0
97045,0.07,0.01,0.98,7.0,0.44,-0.48,25.08,30.6,-30.38,0
97058,0.07,0.01,0.99,6.26,0.55,-0.26,25.08,30.6,-30.38,0
97069,0.07,0.01,0.99,5.92,0.31,-0.18,24.98,30.6,-30.15,0
97080,0.07,0.0,0.99,5.7,-0.02,-0.11,24.98,30.6,-30.15,0
97093,0.06,-0.0,0.98,5.44,-0.44,0.0,24.98,30.6,-30.15,0
97104,0.06,-0.01,0.97,5.41,-0.6,0.03,24.98,30.6,-30.15,0
97115,0.06,-0.01,0.97,5.39,-0.64,-0.04,24.84,30.7,-30.03,0
97127,0.06,-0.01,0.97,5.55,-0.36,-0.42,24.84,30.7,-30.03,0
97139,0.07,-0.01,0.97,5.63,-0.11,-0.62,24.84,30.7,-30.03,0
97151,0.07,-0.0,0.98,5.63,0.09,-0.58,24.84,30.7,-30.03,0
97163,0.08,-0.01,0.99,5.25,0.21,-0.37,24.7,30.85,-29.78,0
97175,0.08,-0.01,0.99,4.77,0.3,-0.14,24.7,30.85,-29.78,0
97185,0.07,-0.01,1.0,3.85,0.0,0.07,24.7,30.85,-29.78,0
97196,0.07,-0.01,1.0,3.77,-0.13,0.15,24.7,30.85,-29.78,0
97208,0.07,-0.01,1.0,3.9,-0.33,0.18,24.7,30.85,-29.78,0
97220,0.07,-0.02,0.99,4.24,-0.98,-0.01,24.71,30.91,-29.66,0
97231,0.07,-0.02,0.98,4.4,-1.16,-0.22,24.71,30.91,-29.66,0
97243,0.07,-0.03,0.98,4.42,-0.92,-0.51,24.71,30.91,-29.66,0
97256,0.07,-0.03,0.99,4.34,-0.23,-1.14,24.71,30.91,-29.66,0
97267,0.07,-0.03,0.99,4.45,-0.09,-1.4,24.75,30.98,-29.51,0
97280,0.08,-0.03,0.99,5.06,-0.19,-1.66,24.75,30.98,-29.51,0
97291,0.08,-0.03,1.0,5.37,-0.51,-1.75,24.75,30.98,-29.51,0
97303,0.08,-0.04,1.0,5.44,-0.95,-1.82,24.75,30.98,-29.51,0
97314,0.08,-0.04,1.0,4.91,-1.32,-1.88,24.8,31.05,-29.4,0
97325,0.08,-0.04,1.0,4.41,-1.68,-1.98,24.8,31.05,-29.4,0
97337,0.08,-0.03,1.0,4.11,-1.97,-2.19,24.8,31.05,-29.4,0
97350,0.08,-0.03,1.0,4.04,-2.44,-2.62,24.8,31.05,-29.4,0
97363,0.08,-0.03,1.0,3.88,-2.83,-2.76,24.8,31.2,-29.4,0
97376,0.07,-0.02,0.99,2.9,-3.89,-2.63,24.8,31.2,-29.4,0
97387,0.07,-0.02,0.99,2.34,-4.14,-2.48,24.8,31.2,-29.4,0
97397,0.07,-0.02,0.99,1.92,-4.44,-2.37,24.8,31.2,-29.4,0
97410,0.07,-0.01,0.98,1.34,-5.09,-2.12,24.8,31.2,-29.4,0
97421,0.06,-0.01,0.98,1.27,-5.22,-2.01,24.68,31.37,-29.61,0
97433,0.06,-0.0,0.98,1.42,-5.21,-1.91,24.68,31.37,-29.61,0
97445,0.05,-0.0,0.97,1.82,-5.01,-1.48,24.68,31.37,-29.61,0
97457,0.05,-0.0,0.97,1.86,-5.02,-1.13,24.68,31.37,-29.61,0
97469,0.05,-0.0,0.96,2.0,-5.06,-0.24,24.39,31.43,-29.46,0
97480,0.04,-0.0,0.95,2.05,-4.91,0.15,24.39,31.43,-29.46,0
97492,0.05,-0.01,0.95,1.89,-4.6,0.41,24.39,31.43,-29.46,0
97505,0.05,-0.01,0.95,1.0,-3.66,0.66,24.39,31.43,-29.46,0
97516,0.05,-0.0,0.95,0.48,-3.23,0.69,24.32,31.45,-29.57,0
97528,0.05,-0.0,0.96,0.09,-2.87,0.75,24.32,31.45,-29.57,0
97539,0.05,0.0,0.97,0.25,-2.5,1.2,24.32,31.45,-29.57,0
97551,0.05,0.0,0.98,0.69,-2.55,1.52,24.32,31.45,-29.57,0
97564,0.05,0.0,0.98,1.59,-2.5,2.18,24.35,31.47,-29.67,0
97576,0.05,-0.0,0.98,1.81,-2.39,2.6,24.35,31.47,-29.67,0
97588,0.05,-0.01,0.98,1.91,-2.48,2.9,24.35,31.47,-29.67,0
97599,0.05,-0.02,0.97,2.01,-2.99,3.04,24.35,31.47,-29.67,0
97611,0.05,-0.02,0.97,1.91,-3.05,2.97,24.35,31.47,-29.67,0
97622,0.05,-0.03,0.97,1.69,-3.07,2.82,24.33,31.49,-29.44,0
97634,0.04,-0.03,0.97,1.01,-2.9,2.64,24.33,31.49,-29.44,0
97645,0.04,-0.03,0.97,0.69,-2.59,2.66,24.33,31.49,-29.44,0
97658,0.04,-0.03,0.97,0.55,-2.07,2.66,24.33,31.49,-29.44,0
97670,0.04,-0.03,0.97,0.48,-1.86,2.46,24.37,31.53,-29.66,0
97681,0.05,-0.03,0.97,0.27,-1.54,2.17,24.37,31.53,-29.66,0
97692,0.05,-0.03,0.97,-0.01,-1.17,1.62,24.37,31.53,-29.66,0
97703,0.05,-0.03,0.98,0.13,-1.08,1.49,24.37,31.53,-29.66,0
97714,0.05,-0.03,0.98,0.3,-1.0,1.39,24.28,31.55,-29.76,0
97728,0.05,-0.03,0.99,0.55,-1.27,1.13,24.28,31.55,-29.76,0
97740,0.05,-0.03,0.99,0.5,-1.62,0.97,24.28,31.55,-29.76,0
97752,0.05,-0.04,0.99,-0.15,-2.43,0.51,24.28,31.55,-29.76,0
97764,0.04,-0.03,0.98,-0.29,-2.61,0.13,24.31,31.49,-29.73,0
97776,0.04,-0.02,0.98,-0.08,-2.52,-0.27,24.31,31.49,-29.73,0
97788,0.04,-0.02,0.98,0.95,-1.88,-0.82,24.31,31.49,-29.73,0
97800,0.04,-0.01,0.98,1.44,-1.77,-0.92,24.31,31.49,-29.73,0
97813,0.04,-0.01,0.98,1.8,-1.76,-0.81,24.27,31.44,-29.84,0
97824,0.04,-0.01,0.98,1.53,-1.77,-0.6,24.27,31.44,-29.84,0
97835,0.04,-0.01,0.98,1.26,-1.85,-0.47,24.27,31.44,-29.84,0
97849,0.04,-0.01,0.98,1.26,-1.56,-0.36,24.27,31.44,-29.84,0
97860,0.05,-0.01,0.98,1.22,-1.28,-0.42,24.27,31.44,-29.84,0
97872,0.05,-0.01,0.98,1.22,-1.17,-0.79,24.3,31.39,-29.79,0
97883,0.04,-0.01,0.99,1.23,-1.37,-0.96,24.3,31.39,-29.79,0
97895,0.04,-0.01,0.99,1.28,-1.77,-0.97,24.3,31.39,-29.79,0
97909,0.04,-0.02,0.98,1.52,-2.26,-0.63,24.3,31.39,-29.79,0
97920,0.04,-0.02,0.98,1.79,-2.14,-0.53,24.24,31.44,-29.99,0
97930,0.04,-0.02,0.97,2.19,-1.94,-0.55,24.24,31.44,-29.99,0
97940,0.05,-0.02,0.97,2.6,-1.67,-0.74,24.24,31.44,-29.99,0
97952,0.05,-0.02,0.97,2.93,-1.44,-1.16,24.24,31.44,-29.99,0
97963,0.05,-0.02,0.97,2.68,-1.5,-1.31,24.3,31.44,-30.17,0
97976,0.04,-0.02,0.96,2.17,-1.81,-1.35,24.3,31.44,-30.17,0
97986,0.04,-0.01,0.96,2.04,-1.66,-1.16,24.3,31.44,-30.17,0
97998,0.04,-0.01,0.96,2.13,-1.28,-0.88,24.3,31.44,-30.17,0
98013,0.04,-0.01,0.97,2.59,-0.52,-0.61,24.14,31.45,-30.35,0
98024,0.04,-0.02,0.97,2.54,-0.49,-0.62,24.14,31.45,-30.35,0
98035,0.05,-0.01,0.97,2.01,-0.54,-0.85,24.14,31.45,-30.35,0
98046,0.05,-0.01,0.98,2.0,-0.5,-0.92,24.14,31.45,-30.35,0
98057,0.04,-0.01,0.98,2.08,-0.48,-0.86,24.14,31.45,-30.35,0
98068,0.04,-0.01,0.98,2.18,-0.54,-0.69,24.08,31.42,-30.35,0
98078,0.04,-0.01,0.98,2.22,-0.69,-0.27,24.08,31.42,-30.35,0
98090,0.04,-0.02,0.98,2.25,-0.6,-0.09,24.08,31.42,-30.35,0
98101,0.04,-0.02,0.98,2.13,-0.48,-0.02,24.08,31.42,-30.35,0
98112,0.05,-0.02,0.98,1.84,-0.46,-0.07,24.04,31.36,-30.37,0
98123,0.05,-0.02,0.98,1.53,-0.49,-0.19,24.04,31.36,-30.37,0
98135,0.04,-0.01,0.98,1.47,-0.65,-0.29,24.04,31.36,-30.37,0
98149,0.04,-0.01,0.98,2.0,-0.79,-0.07,24.04,31.36,-30.37,0
98161,0.04,-0.02,0.98,2.32,-0.82,0.15,23.96,31.37,-30.21,0
98175,0.04,-0.03,0.98,2.61,-0.82,0.4,23.96,31.37,-30.21,0
98187,0.04,-0.03,0.98,2.37,-0.81,0.36,23.96,31.37,-30.21,0
98197,0.05,-0.03,0.98,1.87,-1.05,0.22,23.96,31.37,-30.21,0
98207,0.05,-0.03,0.98,0.8,-1.46,-0.38,23.96,31.37,-30.21,0
98219,0.04,-0.03,0.98,0.57,-1.36,-0.69,23.98,31.43,-30.29,0
98230,0.04,-0.03,0.98,0.54,-1.12,-0.93,23.98,31.43,-30.29,0
98240,0.04,-0.02,0.98,0.76,-0.88,-1.14,23.98,31.43,-30.29,0
98251,0.04,-0.02,0.98,1.56,-0.69,-1.32,23.98,31.43,-30.29,0
98263,0.05,-0.02,0.98,1.65,-0.7,-1.24,23.91,31.34,-30.22,0
98273,0.05,-0.02,0.98,1.43,-0.72,-1.13,23.91,31.34,-30.22,0
98283,0.05,-0.02,0.99,1.13,-0.67,-1.0,23.91,31.34,-30.22,0
98295,0.05,-0.01,0.99,0.85,-0.91,-0.85,23.91,31.34,-30.22,0
98306,0.05,-0.01,0.99,1.0,-1.11,-0.93,23.91,31.34,-30.22,0
98318,0.05,-0.01,0.99,1.19,-1.19,-1.08,23.96,31.43,-30.21,0
98329,0.05,-0.01,0.99,1.52,-1.16,-1.31,23.96,31.43,-30.21,0
98340,0.05,-0.01,0.99,1.66,-1.2,-1.2,23.96,31.43,-30.21,0
98351,0.05,-0.01,0.99,1.53,-1.35,-0.97,23.96,31.43,-30.21,0
98364,0.05,-0.01,0.98,0.69,-1.64,-0.42,23.94,31.58,-30.15,0
98376,0.05,-0.01,0.98,0.44,-1.63,-0.36,23.94,31.58,-30.15,0
98389,0.04,-0.0,0.98,0.71,-1.45,-0.3,23.94,31.58,-30.15,0
98400,0.04,-0.0,0.98,1.25,-1.43,-0.23,23.94,31.58,-30.15,0
98410,0.04,-0.0,0.98,1.87,-1.32,-0.13,23.94,31.58,-30.15,0
98421,0.04,-0.01,0.97,2.44,-1.11,0.07,23.97,31.57,-30.23,0
98432,0.04,-0.01,0.98,2.45,-0.97,0.53,23.97,31.57,-30.23,0
98444,0.04,-0.02,0.98,1.95,-1.01,0.64,23.97,31.57,-30.23,0
98457,0.04,-0.02,0.98,0.79,-1.22,0.51,23.97,31.57,-30.23,0
98468,0.04,-0.01,0.98,0.61,-1.43,0.37,23.92,31.58,-30.42,0
98479,0.04,-0.01,0.98,0.81,-1.52,0.25,23.92,31.58,-30.42,0
98491,0.04,-0.01,0.97,1.78,-1.23,0.29,23.92,31.58,-30.42,0
98502,0.04,-0.02,0.97,2.14,-1.1,0.38,23.92,31.58,-30.42,0
98513,0.04,-0.02,0.97,2.3,-1.04,0.5,23.85,31.72,-30.2,0
98525,0.04,-0.02,0.97,2.05,-1.0,0.62,23.85,31.72,-30.2,0
98536,0.04,-0.02,0.97,1.77,-0.86,0.54,23.85,31.72,-30.2,0
98548,0.04,-0.02,0.97,1.49,-0.64,0.39,23.85,31.72,-30.2,0
98562,0.04,-0.02,0.98,0.98,-0.43,-0.0,23.89,31.69,-30.28,0
98573,0.04,-0.02,0.98,0.77,-0.47,-0.12,23.89,31.69,-30.28,0
98583,0.04,-0.02,0.98,0.6,-0.56,-0.18,23.89,31.69,-30.28,0
98593,0.04,-0.02,0.98,0.49,-0.69,-0.22,23.89,31.69,-30.28,0
98604,0.04,-0.02,0.98,0.68,-0.92,-0.31,23.89,31.69,-30.28,0
98616,0.04,-0.01,0.98,0.92,-0.87,-0.3,23.81,31.64,-30.34,0
98626,0.04,-0.01,0.98,1.18,-0.7,-0.27,23.81,31.64,-30.34,0
98637,0.04,-0.01,0.98,1.44,-0.52,-0.39,23.81,31.64,-30.34,0
98648,0.05,-0.01,0.99,1.42,-0.67,-0.36,23.81,31.64,-30.34,0
98658,0.05,-0.01,0.99,1.3,-0.89,-0.27,23.81,31.64,-30.34,0
98669,0.05,-0.01,0.98,1.12,-0.98,-0.2,23.72,31.68,-30.12,0
98680,0.05,-0.01,0.98,1.01,-0.92,-0.19,23.72,31.68,-30.12,0
98691,0.05,-0.0,0.99,1.12,-0.96,-0.17,23.72,31.68,-30.12,0
98701,0.05,-0.0,0.99,1.32,-1.02,-0.08,23.72,31.68,-30.12,0
98712,0.05,-0.0,0.99,1.55,-1.07,0.02,23.6,31.65,-30.2,0
98722,0.05,-0.0,0.99,2.15,-0.99,0.5,23.6,31.65,-30.2,0
98733,0.05,-0.01,0.99,2.31,-0.81,0.73,23.6,31.65,-30.2,0
98745,0.05,-0.01,0.99,2.42,-0.73,0.85,23.6,31.65,-30.2,0
98759,0.05,-0.01,0.98,2.39,-0.6,0.73,23.6,31.65,-30.2,0
98770,0.05,-0.02,0.98,2.47,-0.74,0.66,23.65,31.67,-30.06,0
98781,0.06,-0.02,0.98,2.41,-0.86,0.61,23.65,31.67,-30.06,0
98793,0.08,-0.04,0.97,0.82,-0.83,0.29,23.65,31.67,-30.06,0
98804,0.07,-0.03,0.97,-0.95,-0.86,-0.5,23.65,31.67,-30.06,0
98816,0.04,0.0,0.97,-2.59,-1.17,-1.82,23.55,31.66,-30.23,0
98828,0.02,0.07,0.98,0.54,-0.68,-2.44,23.55,31.66,-30.23,0
98839,0.02,0.07,0.99,5.73,0.53,-0.23,23.55,31.66,-30.23,0
98853,0.03,-0.05,1.01,13.64,0.53,6.76,23.55,31.66,-30.23,0
98864,0.06,-0.09,0.99,12.37,-0.26,8.35,23.48,31.54,-30.03,0
98875,0.06,-0.1,0.97,8.25,-1.47,8.43,23.48,31.54,-30.03,0
98887,0.04,-0.1,0.95,-1.44,-2.94,4.5,23.48,31.54,-30.03,0
98898,0.03,-0.07,0.96,-4.19,-2.44,0.96,23.48,31.54,-30.03,0
98908,0.03,-0.04,0.97,-4.91,-1.32,-2.63,23.48,31.54,-30.03,0
98919,0.04,0.0,0.98,-3.64,-0.09,-4.92,23.51,31.55,-29.93,0
98931,0.04,0.03,1.0,2.92,0.94,-4.45,23.51,31.55,-29.93,0
98942,0.05,0.03,1.0,5.59,0.35,-2.61,23.51,31.55,-29.93,0
98956,0.06,-0.01,0.98,4.8,-1.68,2.38,23.51,31.55,-29.93,0
98967,0.06,-0.03,0.97,2.3,-2.51,4.34,23.54,31.38,-29.93,0
98978,0.05,-0.05,0.95,-0.41,-3.06,5.07,23.54,31.38,-29.93,0
98990,0.04,-0.04,0.94,-3.87,-2.47,2.56,23.54,31.38,-29.93,0
99002,0.03,-0.03,0.95,-3.36,-1.19,0.38,23.54,31.38,-29.93,0
99013,0.03,-0.02,0.97,-1.41,0.22,-1.52,23.51,31.36,-29.88,0
99025,0.04,-0.01,1.0,3.12,1.56,-2.74,23.51,31.36,-29.88,0
99037,0.04,-0.02,1.01,3.81,1.13,-2.2,23.51,31.36,-29.88,0
99047,0.05,-0.02,1.01,3.24,0.16,-1.3,23.51,31.36,-29.88,0
99058,0.06,-0.03,1.0,0.02,-1.96,0.31,23.51,31.36,-29.88,0
99069,0.06,-0.02,0.98,-1.25,-2.72,0.56,23.55,31.37,-29.84,0
99081,0.06,-0.02,0.97,-1.67,-3.01,0.36,23.55,31.37,-29.84,0
99092,0.05,-0.01,0.96,0.32,-2.25,-0.81,23.55,31.37,-29.84,0
99103,0.04,-0.01,0.96,1.94,-1.46,-1.33,23.55,31.37,-29.84,0
99114,0.03,-0.01,0.97,3.2,-0.71,-1.54,23.52,31.33,-29.89,0
99128,0.03,-0.03,0.98,3.12,-0.19,-1.01,23.52,31.33,-29.89,0
99139,0.04,-0.03,0.98,1.78,-0.54,-0.5,23.52,31.33,-29.89,0
99150,0.04,-0.03,0.98,0.12,-1.01,-0.22,23.52,31.33,-29.89,0
99162,0.04,-0.03,0.98,-1.7,-1.64,-0.69,23.52,31.4,-29.83,0
99173,0.05,-0.02,0.97,-1.49,-1.61,-1.29,23.52,31.4,-29.83,0
99184,0.05,-0.01,0.98,-0.74,-1.19,-1.92,23.52,31.4,-29.83,0
99195,0.05,-0.01,0.98,0.88,-0.45,-2.23,23.52,31.4,-29.83,0
99206,0.05,-0.01,0.99,1.2,-0.58,-2.02,23.52,31.4,-29.83,0
99217,0.04,-0.01,0.99,0.95,-0.9,-1.4,23.38,31.42,-29.94,0
99231,0.04,-0.01,0.98,-0.45,-1.42,-0.05,23.38,31.42,-29.94,0
99243,0.04,-0.02,0.98,-0.93,-1.48,0.17,23.38,31.42,-29.94,0
99256,0.04,-0.01,0.98,-0.64,-1.38,-0.7,23.38,31.42,-29.94,0
99268,0.04,-0.01,0.98,0.04,-1.32,-1.3,23.23,31.33,-30.06,0
99278,0.04,-0.0,0.98,0.76,-1.16,-1.79,23.23,31.33,-30.06,0
99288,0.04,0.0,0.98,1.21,-0.96,-2.04,23.23,31.33,-30.06,0
99300,0.04,0.01,0.98,1.1,-0.81,-1.74,23.23,31.33,-30.06,0
99311,0.04,0.01,0.98,0.67,-1.01,-1.19,23.24,31.31,-29.86,0
99321,0.04,0.0,0.98,0.09,-1.21,-0.57,23.24,31.31,-29.86,0
99331,0.04,0.0,0.98,-0.43,-1.37,-0.05,23.24,31.31,-29.86,0
99343,0.04,0.0,0.98,-0.46,-1.67,0.08,23.24,31.31,-29.86,0
99354,0.04,0.0,0.98,0.12,-1.6,-0.04,23.24,31.31,-29.86,0
99365,0.04,0.0,0.98,0.79,-1.3,-0.19,23.15,31.27,-29.99,0
99377,0.05,0.01,0.98,1.98,-0.71,-0.28,23.15,31.27,-29.99,0
99389,0.04,0.01,0.98,2.47,-0.57,-0.13,23.15,31.27,-29.99,0
99399,0.05,0.01,0.99,2.79,-0.44,0.16,23.15,31.27,-29.99,0
99410,0.05,0.0,0.99,2.27,-0.69,0.83,23.04,31.13,-29.8,0
99422,0.05,-0.0,0.99,1.52,-1.06,1.08,23.04,31.13,-29.8,0
99434,0.04,-0.0,0.99,0.93,-1.35,1.18,23.04,31.13,-29.8,0
99446,0.04,-0.0,0.98,0.95,-1.35,0.99,23.04,31.13,-29.8,0
99456,0.04,-0.0,0.98,1.51,-1.11,0.73,23.04,31.13,-29.8,0
99466,0.04,-0.0,0.98,2.17,-0.88,0.47,23.02,31.09,-29.91,0
99480,0.05,-0.0,0.98,2.75,-0.81,0.41,23.02,31.09,-29.91,0
99492,0.04,-0.0,0.98,2.56,-1.07,0.62,23.02,31.09,-29.91,0
99502,0.04,-0.0,0.98,2.27,-1.39,0.91,23.02,31.09,-29.91,0
99514,0.04,-0.01,0.97,1.83,-1.66,1.3,23.18,31.23,-29.86,0
99526,0.04,-0.01,0.97,1.88,-1.53,1.3,23.18,31.23,-29.86,0
99540,0.03,-0.01,0.97,2.39,-1.27,0.91,23.18,31.23,-29.86,0
99550,0.04,-0.01,0.97,2.55,-1.04,0.68,23.18,31.23,-29.86,0
99561,0.04,-0.01,0.97,2.56,-0.74,0.51,23.17,31.29,-29.96,0
99571,0.04,-0.0,0.98,2.52,-0.45,0.39,23.17,31.29,-29.96,0
99582,0.04,-0.0,0.99,2.1,0.2,0.47,23.17,31.29,-29.96,0
99592,0.05,-0.0,1.0,1.7,0.4,0.77,23.17,31.29,-29.96,0
99604,0.05,-0.0,1.01,1.19,0.27,1.18,23.17,31.29,-29.96,0
99616,0.06,-0.01,1.01,0.44,-0.74,1.85,23.14,31.24,-29.85,0
99627,0.06,-0.02,1.02,0.45,-1.22,1.98,23.14,31.24,-29.85,0
99638,0.06,-0.02,1.01,0.65,-1.65,1.85,23.14,31.24,-29.85,0
99652,0.06,-0.03,1.0,1.17,-2.38,1.1,23.14,31.24,-29.85,0
99663,0.05,-0.03,1.0,1.28,-2.67,0.71,23.24,31.22,-29.88,0
99674,0.05,-0.03,0.99,1.32,-2.87,0.43,23.24,31.22,-29.88,0
99686,0.04,-0.04,0.97,0.97,-3.45,0.25,23.24,31.22,-29.88,0
99698,0.04,-0.04,0.96,0.49,-3.58,0.16,23.24,31.22,-29.88,0
99709,0.03,-0.04,0.95,0.07,-3.53,0.11,23.19,31.26,-29.73,0
99721,0.03,-0.04,0.95,-0.33,-2.87,-0.26,23.19,31.26,-29.73,0
99732,0.03,-0.04,0.95,-0.27,-2.52,-0.59,23.19,31.26,-29.73,0
99746,0.03,-0.04,0.95,-0.12,-2.29,-1.29,23.19,31.26,-29.73,0
99757,0.03,-0.03,0.95,-0.11,-2.05,-1.61,23.19,31.26,-29.73,0
99768,0.03,-0.03,0.95,0.12,-1.59,-1.98,23.27,31.21,-29.71,0
99779,0.03,-0.02,0.96,0.82,-0.46,-2.5,23.27,31.21,-29.71,0
99790,0.03,-0.02,0.97,1.13,-0.1,-2.65,23.27,31.21,-29.71,0
99800,0.04,-0.02,0.98,1.26,0.03,-2.72,23.27,31.21,-29.71,0
99811,0.04,-0.01,0.98,1.12,-0.41,-2.78,23.23,31.2,-29.78,0
99822,0.04,-0.01,0.98,1.19,-1.23,-3.24,23.23,31.2,-29.78,0
99833,0.04,0.01,0.98,1.48,-1.24,-3.47,23.23,31.2,-29.78,0
99843,0.04,0.01,0.97,1.93,-1.24,-3.56,23.23,31.2,-29.78,0
99853,0.04,0.02,0.97,2.6,-1.02,-3.52,23.23,31.2,-29.78,0
99863,0.04,0.02,0.97,3.34,-0.5,-3.35,23.27,31.16,-29.76,0
99876,0.04,0.02,0.97,3.61,0.5,-3.21,23.27,31.16,-29.76,0
99887,0.04,0.02,0.97,3.22,0.67,-3.18,23.27,31.16,-29.76,0
99901,0.03,0.03,0.97,3.27,1.25,-3.07,23.27,31.16,-29.76,0
99912,0.04,0.04,0.98,3.9,1.85,-2.9,23.11,31.24,-29.67,0
99923,0.04,0.04,0.99,4.69,2.28,-2.71,23.11,31.24,-29.67,0
99935,0.04,0.03,1.0,5.76,2.19,-2.02,23.11,31.24,-29.67,0
99947,0.05,0.02,1.0,5.82,1.76,-1.59,23.11,31.24,-29.67,0
99957,0.05,0.02,1.01,5.84,1.33,-1.22,23.11,31.24,-29.67,0
99969,0.05,0.01,1.01,6.57,0.84,-0.78,22.94,31.12,-29.84,0
99980,0.04,0.01,1.01,7.26,0.69,-0.77,22.94,31.12,-29.84,0
99991,0.05,0.0,1.0,7.96,0.61,-0.75,22.94,31.12,-29.84,0
100002,0.05,-0.0,1.0,8.73,0.49,-0.58,22.94,31.12,-29.84,0
100014,0.05,-0.01,0.99,8.71,0.38,-0.52,22.9,31.15,-29.85,0
100025,0.05,-0.02,0.99,8.55,0.32,-0.57,22.9,31.15,-29.85,0
100037,0.05,-0.02,0.99,8.43,0.33,-0.87,22.9,31.15,-29.85,0
100048,0.05,-0.03,0.98,8.51,0.21,-0.92,22.9,31.15,-29.85,0
100058,0.05,-0.04,0.98,8.65,0.03,-0.96,22.95,31.37,-29.88,0
100069,0.04,-0.04,0.98,8.75,-0.03,-1.07,22.95,31.37,-29.88,0
100080,0.04,-0.05,0.98,8.39,-0.28,-1.39,22.95,31.37,-29.88,0
100091,0.04,-0.05,0.97,8.02,-0.55,-1.51,22.95,31.37,-29.88,0
100101,0.04,-0.05,0.96,7.79,-0.55,-1.65,22.95,31.37,-29.88,0
100112,0.04,-0.05,0.96,7.83,-0.24,-1.81,23.17,31.62,-29.8,0
100124,0.05,-0.05,0.97,8.83,0.8,-2.17,23.17,31.62,-29.8,0
100134,0.05,-0.06,0.97,9.17,0.91,-2.41,23.17,31.62,-29.8,0
100144,0.05,-0.06,0.97,9.14,0.65,-2.57,23.17,31.62,-29.8,0
100154,0.05,-0.06,0.97,8.81,0.36,-2.75,23.17,31.62,-29.8,0
100166,0.05,-0.05,0.97,8.15,0.16,-2.95,23.24,31.83,-29.64,0
100177,0.05,-0.05,0.97,7.86,0.34,-2.99,23.24,31.83,-29.64,0
100188,0.05,-0.05,0.97,7.38,0.51,-2.91,23.24,31.83,-29.64,0
100202,0.06,-0.04,0.97,6.16,0.6,-2.69,23.24,31.83,-29.64,0
100213,0.05,-0.04,0.97,5.57,0.95,-2.62,23.25,32.02,-29.54,0
100223,0.05,-0.04,0.98,5.12,1.41,-2.59,23.25,32.02,-29.54,0
100233,0.05,-0.04,0.99,4.76,1.71,-2.61,23.25,32.02,-29.54,0
100245,0.05,-0.04,0.99,4.25,1.05,-2.6,23.25,32.02,-29.54,0
100255,0.05,-0.04,0.99,3.92,0.51,-2.43,23.25,32.02,-29.54,0
100266,0.05,-0.04,0.99,3.49,0.13,-2.08,23.3,32.21,-29.55,0
100276,0.05,-0.04,0.99,3.19,-0.01,-1.68,23.3,32.21,-29.55,0
100288,0.06,-0.04,0.99,2.59,0.28,-0.97,23.3,32.21,-29.55,0
100298,0.08,-0.05,0.99,1.9,0.42,-0.6,23.3,32.21,-29.55,0
100309,0.08,-0.04,0.99,1.19,0.26,-0.3,23.39,32.39,-29.43,0
100320,0.09,-0.04,0.99,0.38,-0.95,0.1,23.39,32.39,-29.43,0
100331,0.08,-0.04,0.98,0.06,-1.64,0.34,23.39,32.39,-29.43,0
100341,0.08,-0.04,0.98,-0.35,-2.37,0.73,23.39,32.39,-29.43,0
100351,0.08,-0.04,0.97,-0.69,-2.98,1.24,23.39,32.39,-29.43,0
100363,0.07,-0.04,0.95,-0.3,-3.08,1.99,23.29,32.48,-29.53,0
100374,0.06,-0.05,0.94,0.12,-2.38,2.09,23.29,32.48,-29.53,0
100384,0.06,-0.05,0.94,0.43,-1.45,2.06,23.29,32.48,-29.53,0
100394,0.05,-0.05,0.94,0.72,-0.7,1.97,23.29,32.48,-29.53,0
100404,0.05,-0.05,0.94,1.13,-0.17,1.79,23.29,32.48,-29.53,0
100417,0.05,-0.05,0.96,2.31,0.37,1.55,23.39,32.55,-29.48,0
100428,0.04,-0.05,0.97,2.43,0.41,1.61,23.39,32.55,-29.48,0
100441,0.04,-0.04,0.97,2.5,-0.47,1.98,23.39,32.55,-29.48,0
100453,0.03,-0.04,0.97,3.2,-0.85,2.12,23.39,32.55,-29.48,0
100464,0.03,-0.05,0.97,4.28,-0.81,2.17,23.47,32.58,-29.44,0
100476,0.03,-0.06,0.97,5.92,-0.14,1.91,23.47,32.58,-29.44,0
100488,0.03,-0.06,0.97,6.23,0.15,1.55,23.47,32.58,-29.44,0
100498,0.04,-0.07,0.98,5.95,0.64,1.14,23.47,32.58,-29.44,0
100511,0.04,-0.07,1.01,2.82,1.05,0.87,23.49,32.51,-29.39,0
100521,0.04,-0.06,1.02,0.83,0.39,0.99,23.49,32.51,-29.39,0
100532,0.04,-0.05,1.02,-0.59,-0.55,1.13,23.49,32.51,-29.39,0
100543,0.04,-0.05,1.01,-1.15,-1.7,1.64,23.49,32.51,-29.39,0
100554,0.03,-0.05,1.01,-0.44,-1.66,1.8,23.49,32.51,-29.39,0
100565,0.04,-0.05,1.01,0.72,-1.59,1.77,23.5,32.56,-29.03,0
100578,0.04,-0.05,1.0,2.92,-1.73,1.15,23.5,32.56,-29.03,0
100589,0.04,-0.05,0.99,3.44,-1.86,0.83,23.5,32.56,-29.03,0
100599,0.04,-0.05,0.99,3.58,-1.88,0.63,23.5,32.56,-29.03,0
100609,0.04,-0.05,0.98,3.28,-1.8,0.62,23.48,32.52,-28.84,0
100621,0.05,-0.05,0.98,1.69,-1.66,1.04,23.48,32.52,-28.84,0
100632,0.05,-0.04,0.98,1.14,-1.56,1.28,23.48,32.52,-28.84,0
100642,0.04,-0.04,0.98,0.83,-1.39,1.51,23.48,32.52,-28.84,0
100652,0.05,-0.04,0.98,0.35,-1.34,1.72,23.48,32.52,-28.84,0
100664,0.05,-0.04,0.99,-1.55,-1.9,2.25,23.45,32.6,-28.78,0
100675,0.05,-0.04,0.98,-2.39,-2.02,2.42,23.45,32.6,-28.78,0
100686,0.05,-0.04,0.97,-2.7,-1.84,2.4,23.45,32.6,-28.78,0
100700,0.06,-0.04,0.98,-1.79,-0.58,2.17,23.45,32.6,-28.78,0
100711,0.06,-0.04,0.99,-1.53,-0.26,2.11,23.32,32.58,-28.59,0
100724,0.06,-0.05,0.99,-2.7,-0.76,2.08,23.32,32.58,-28.59,0
100735,0.06,-0.05,0.99,-3.68,-0.99,1.97,23.32,32.58,-28.59,0
100747,0.06,-0.05,0.99,-4.52,-1.35,1.92,23.32,32.58,-28.59,0
100760,0.06,-0.05,0.98,-5.38,-2.82,2.16,23.43,32.57,-28.54,0
100772,0.06,-0.05,0.98,-5.57,-2.89,2.16,23.43,32.57,-28.54,0
100785,0.06,-0.06,0.96,-4.41,-2.61,1.71,23.43,32.57,-28.54,0
100796,0.06,-0.07,0.96,-3.25,-2.68,1.32,23.43,32.57,-28.54,0
100807,0.06,-0.07,0.96,-2.17,-2.6,0.8,23.52,32.38,-28.8,0
100818,0.06,-0.08,0.96,-1.08,-2.54,-0.21,23.52,32.38,-28.8,0
100829,0.05,-0.08,0.96,-0.69,-2.83,-0.64,23.52,32.38,-28.8,0
100841,0.04,-0.08,0.96,-0.27,-3.23,-0.98,23.52,32.38,-28.8,0
100854,0.04,-0.08,0.96,0.49,-3.32,-1.58,23.52,32.38,-28.8,0
100866,0.04,-0.07,0.96,0.82,-2.97,-1.92,23.54,32.41,-29.0,0
100876,0.04,-0.07,0.96,1.0,-2.5,-2.31,23.54,32.41,-29.0,0
100887,0.05,-0.06,0.96,1.67,-1.77,-3.25,23.54,32.41,-29.0,0
100898,0.04,-0.05,0.97,2.05,-1.46,-3.76,23.54,32.41,-29.0,0
100909,0.04,-0.05,0.97,2.17,-1.12,-4.17,23.57,32.44,-28.94,0
100919,0.04,-0.05,0.98,1.81,-0.9,-4.5,23.57,32.44,-28.94,0
100930,0.04,-0.04,0.99,0.83,-1.2,-4.72,23.57,32.44,-28.94,0
100941,0.04,-0.03,1.0,0.77,-1.62,-4.56,23.57,32.44,-28.94,0
100951,0.04,-0.02,1.0,0.89,-1.95,-4.25,23.57,32.44,-28.94,0
100962,0.04,-0.02,1.0,0.87,-2.37,-4.08,23.59,32.36,-28.88,0
100973,0.04,-0.02,1.0,0.87,-2.74,-4.24,23.59,32.36,-28.88,0
100984,0.04,-0.01,0.99,1.02,-2.69,-4.11,23.59,32.36,-28.88,0
100994,0.04,-0.02,0.99,1.2,-2.7,-4.0,23.59,32.36,-28.88,0
101004,0.04,-0.02,0.99,1.36,-2.67,-3.95,23.59,32.36,-28.88,0
101016,0.04,-0.02,0.99,1.38,-2.69,-3.46,23.5,32.37,-28.91,0
101027,0.04,-0.02,0.99,1.32,-2.62,-3.17,23.5,32.37,-28.91,0
101037,0.04,-0.02,0.99,1.12,-2.84,-2.94,23.5,32.37,-28.91,0
101047,0.04,-0.02,0.99,0.94,-2.95,-2.72,23.5,32.37,-28.91,0
101059,0.05,-0.02,0.99,1.09,-3.72,-2.54,23.51,32.41,-28.96,0
101070,0.04,-0.02,0.98,1.35,-4.09,-2.48,23.51,32.41,-28.96,0
101081,0.04,-0.02,0.97,1.59,-4.01,-2.45,23.51,32.41,-28.96,0
101095,0.04,-0.02,0.97,1.94,-3.47,-2.28,23.51,32.41,-28.96,0
101106,0.03,-0.02,0.97,1.93,-3.15,-2.17,23.36,32.36,-29.25,0
101119,0.04,-0.02,0.97,1.43,-2.68,-1.65,23.36,32.36,-29.25,0
101130,0.03,-0.02,0.97,1.07,-2.51,-1.37,23.36,32.36,-29.25,0
101141,0.03,-0.02,0.97,1.07,-2.47,-1.23,23.36,32.36,-29.25,0
101152,0.03,-0.02,0.97,1.27,-2.45,-1.21,23.36,32.36,-29.25,0
101165,0.03,-0.02,0.97,2.18,-2.35,-1.12,23.29,32.4,-29.36,0
101175,0.03,-0.02,0.97,2.79,-2.28,-1.02,23.29,32.4,-29.36,0
101185,0.03,-0.02,0.97,3.3,-2.11,-0.96,23.29,32.4,-29.36,0
101196,0.03,-0.02,0.97,3.21,-2.09,-0.86,23.29,32.4,-29.36,0
101208,0.03,-0.02,0.97,2.4,-2.25,-0.74,23.16,32.33,-29.45,0
101218,0.03,-0.02,0.97,1.46,-2.36,-0.59,23.16,32.33,-29.45,0
101228,0.04,-0.02,0.97,0.64,-2.44,-0.34,23.16,32.33,-29.45,0
101239,0.03,-0.02,0.98,0.68,-2.49,0.12,23.16,32.33,-29.45,0
101250,0.03,-0.01,0.98,1.51,-2.17,0.2,23.16,32.33,-29.45,0
101261,0.03,-0.01,0.98,2.58,-1.8,0.25,23.06,32.3,-29.47,0
101273,0.03,-0.01,0.98,4.86,-1.76,0.42,23.06,32.3,-29.47,0
101284,0.04,-0.02,0.98,5.47,-1.75,0.77,23.06,32.3,-29.47,0
101296,0.04,-0.03,0.98,5.63,-1.55,1.17,23.06,32.3,-29.47,0
101307,0.05,-0.03,0.99,5.3,-1.25,1.54,23.04,32.32,-29.69,0
101318,0.05,-0.05,1.0,4.49,-1.08,1.89,23.04,32.32,-29.69,0
101328,0.05,-0.05,1.0,3.48,-1.4,1.93,23.04,32.32,-29.69,0
101339,0.05,-0.06,1.0,2.78,-1.81,1.75,23.04,32.32,-29.69,0
101353,0.04,-0.06,1.0,2.81,-2.39,0.82,23.04,32.32,-29.69,0
101363,0.04,-0.07,1.0,3.08,-2.48,0.22,22.97,32.29,-29.47,0
101376,0.03,-0.07,1.0,3.03,-2.29,-0.75,22.97,32.29,-29.47,0
101387,0.04,-0.07,1.0,2.47,-2.36,-1.07,22.97,32.29,-29.47,0
101399,0.04,-0.07,1.0,1.68,-2.74,-1.33,22.97,32.29,-29.47,0
101412,0.03,-0.06,0.99,0.42,-3.93,-1.67,22.94,32.35,-29.22,0
101423,0.03,-0.05,0.98,0.28,-4.36,-1.77,22.94,32.35,-29.22,0
101436,0.02,-0.04,0.98,1.58,-4.58,-2.11,22.94,32.35,-29.22,0
101447,0.02,-0.04,0.97,2.66,-4.35,-2.29,22.94,32.35,-29.22,0
101458,0.02,-0.04,0.97,3.44,-3.97,-2.42,22.86,32.28,-29.28,0
101471,0.02,-0.04,0.97,2.96,-3.56,-2.34,22.86,32.28,-29.28,0
101482,0.02,-0.04,0.96,2.01,-3.51,-2.24,22.86,32.28,-29.28,0
101492,0.02,-0.03,0.96,1.21,-3.43,-2.15,22.86,32.28,-29.28,0
101502,0.02,-0.03,0.95,0.83,-3.23,-2.13,22.86,32.28,-29.28,0
101514,0.01,-0.03,0.95,1.12,-2.66,-2.17,22.73,32.43,-29.29,0
101525,0.01,-0.02,0.96,1.52,-2.49,-2.25,22.73,32.43,-29.29,0
101535,0.01,-0.02,0.96,1.91,-2.1,-2.24,22.73,32.43,-29.29,0
101545,0.01,-0.02,0.97,2.2,-1.45,-2.15,22.73,32.43,-29.29,0
101556,0.01,-0.02,0.97,2.42,-0.79,-2.0,22.6,32.4,-29.32,0
101567,0.02,-0.02,0.98,2.56,-0.27,-1.83,22.6,32.4,-29.32,0
101577,0.02,-0.02,0.99,2.69,-0.17,-1.6,22.6,32.4,-29.32,0
101587,0.02,-0.02,0.99,2.76,-0.24,-1.31,22.6,32.4,-29.32,0
101597,0.02,-0.02,0.99,2.62,-0.56,-0.98,22.6,32.4,-29.32,0
101610,0.02,-0.02,0.98,2.19,-1.27,-0.2,22.43,32.4,-29.1,0
101621,0.02,-0.02,0.98,1.96,-1.1,0.07,22.43,32.4,-29.1,0
101634,0.02,-0.02,0.98,1.75,-0.36,0.56,22.43,32.4,-29.1,0
101644,0.02,-0.02,0.98,1.97,-0.39,0.81,22.43,32.4,-29.1,0
101655,0.02,-0.01,0.97,2.47,-0.6,1.06,22.36,32.53,-29.03,0
101668,0.02,-0.01,0.96,4.05,-0.49,1.7,22.36,32.53,-29.03,0
101679,0.03,-0.02,0.96,4.65,0.02,2.05,22.36,32.53,-29.03,0
101689,0.03,-0.02,0.96,4.96,0.73,2.42,22.36,32.53,-29.03,0
101700,0.03,-0.02,0.96,5.02,1.5,2.72,22.36,32.53,-29.03,0
101713,0.03,-0.03,0.98,4.46,2.48,3.25,22.38,32.45,-29.05,0
101723,0.04,-0.03,0.98,4.06,2.39,3.46,22.38,32.45,-29.05,0
101733,0.03,-0.03,0.99,3.81,2.03,3.69,22.38,32.45,-29.05,0
101745,0.03,-0.03,0.99,3.64,1.47,4.31,22.38,32.45,-29.05,0
101757,0.03,-0.04,0.99,3.55,1.56,4.47,22.4,32.6,-29.01,0
101768,0.03,-0.04,0.99,3.48,1.59,4.52,22.4,32.6,-29.01,0
101782,0.03,-0.05,0.99,3.79,1.66,4.2,22.4,32.6,-29.01,0
101792,0.03,-0.05,0.99,4.07,1.84,4.08,22.4,32.6,-29.01,0
101804,0.03,-0.06,0.99,4.26,2.04,4.07,22.5,32.7,-29.02,0
101816,0.03,-0.06,0.99,4.35,2.19,4.13,22.5,32.7,-29.02,0
101827,0.03,-0.07,1.0,4.42,2.03,4.12,22.5,32.7,-29.02,0
101840,0.02,-0.07,1.0,4.97,1.34,3.79,22.5,32.7,-29.02,0
101851,0.03,-0.08,1.0,5.26,0.85,3.5,22.5,32.7,-29.02,0
101862,0.03,-0.09,1.0,5.3,0.26,3.06,22.57,32.69,-29.1,0
101874,0.03,-0.09,1.0,4.68,-0.44,2.03,22.57,32.69,-29.1,0
101885,0.04,-0.09,0.99,4.12,-0.6,1.39,22.57,32.69,-29.1,0
101896,0.04,-0.08,0.99,3.52,-0.72,0.82,22.57,32.69,-29.1,0
101907,0.04,-0.08,0.99,2.96,-0.87,0.45,22.6,32.83,-29.22,0
101919,0.04,-0.07,0.99,1.89,-1.04,-0.0,22.6,32.83,-29.22,0
101931,0.04,-0.07,0.99,1.7,-1.0,-0.23,22.6,32.83,-29.22,0
101941,0.04,-0.06,0.99,1.88,-0.95,-0.49,22.6,32.83,-29.22,0
101952,0.04,-0.06,0.99,2.56,-1.24,-0.91,22.6,32.83,-29.22,0
101964,0.04,-0.06,1.0,2.63,-1.34,-1.01,22.73,32.95,-29.25,0
101974,0.03,-0.06,1.0,2.29,-1.57,-1.04,22.73,32.95,-29.25,0
101984,0.03,-0.06,1.0,1.8,-1.86,-1.07,22.73,32.95,-29.25,0
101995,0.03,-0.06,0.99,1.43,-2.36,-1.24,22.73,32.95,-29.25,0
102007,0.03,-0.06,0.98,1.53,-2.63,-1.21,22.68,33.04,-28.95,0
102018,0.04,-0.06,0.98,1.45,-2.75,-1.08,22.68,33.04,-28.95,0
102030,0.04,-0.06,0.97,0.75,-2.82,-0.88,22.68,33.04,-28.95,0
102042,0.04,-0.06,0.97,0.58,-2.83,-0.83,22.68,33.04,-28.95,0
102052,0.04,-0.05,0.96,0.74,-2.69,-0.78,22.68,33.04,-28.95,0
102065,0.04,-0.05,0.97,1.37,-1.97,-0.79,22.79,33.05,-29.01,0
102075,0.04,-0.05,0.97,1.46,-1.76,-0.82,22.79,33.05,-29.01,0
102085,0.03,-0.05,0.97,1.47,-1.86,-0.81,22.79,33.05,-29.01,0
102095,0.03,-0.05,0.97,1.54,-2.09,-0.73,22.79,33.05,-29.01,0
102108,0.03,-0.05,0.97,1.79,-2.07,-0.29,22.77,33.14,-28.86,0
102118,0.03,-0.05,0.97,1.83,-1.72,-0.01,22.77,33.14,-28.86,0
102128,0.03,-0.06,0.97,1.53,-1.29,0.18,22.77,33.14,-28.86,0
102138,0.03,-0.06,0.98,0.82,-1.01,0.41,22.77,33.14,-28.86,0
102151,0.03,-0.06,0.98,-1.18,-1.07,0.62,22.77,33.14,-28.86,0
102162,0.03,-0.05,0.98,-1.48,-1.37,0.48,22.72,33.1,-28.78,0
102175,0.02,-0.05,0.98,-0.73,-1.5,0.14,22.72,33.1,-28.78,0
102186,0.02,-0.05,0.98,-0.2,-1.7,0.19,22.72,33.1,-28.78,0
102197,0.02,-0.05,0.97,0.23,-1.96,0.32,22.72,33.1,-28.78,0
102209,0.02,-0.05,0.96,0.67,-1.79,0.59,22.69,33.08,-28.78,0
102220,0.02,-0.06,0.96,0.75,-1.42,0.65,22.69,33.08,-28.78,0
102231,0.03,-0.06,0.96,0.8,-1.19,0.56,22.69,33.08,-28.78,0
102245,0.03,-0.06,0.97,0.43,-1.31,0.12,22.69,33.08,-28.78,0
102256,0.03,-0.06,0.97,0.05,-1.64,0.03,22.66,32.95,-28.9,0
102266,0.03,-0.06,0.97,-0.32,-1.95,-0.02,22.66,32.95,-28.9,0
102279,0.02,-0.06,0.96,-0.72,-1.9,-0.17,22.66,32.95,-28.9,0
102291,0.02,-0.06,0.97,-0.66,-1.44,-0.34,22.66,32.95,-28.9,0
102305,0.03,-0.06,0.97,-0.02,-0.35,-0.88,22.65,32.9,-28.89,0
102315,0.03,-0.05,0.98,0.03,-0.22,-1.1,22.65,32.9,-28.89,0
102325,0.03,-0.05,0.99,-0.1,-0.44,-1.29,22.65,32.9,-28.89,0
102335,0.03,-0.04,0.99,-0.29,-0.99,-1.38,22.65,32.9,-28.89,0
102345,0.03,-0.04,1.0,-0.58,-1.7,-1.29,22.65,32.9,-28.89,0
102358,0.03,-0.03,0.99,-0.22,-2.7,-0.9,22.58,32.75,-28.99,0
102368,0.03,-0.03,0.99,0.49,-2.78,-0.69,22.58,32.75,-28.99,0
102378,0.03,-0.03,0.99,1.16,-2.77,-0.51,22.58,32.75,-28.99,0
102388,0.03,-0.03,0.99,1.52,-2.96,-0.3,22.58,32.75,-28.99,0
102400,0.02,-0.03,0.99,0.8,-3.25,0.17,22.58,32.75,-28.99,0
102410,0.02,-0.03,0.99,-0.01,-3.11,0.42,22.5,32.71,-29.11,0
102422,0.02,-0.03,0.99,-0.64,-2.86,0.55,22.5,32.71,-29.11,0
102434,0.02,-0.02,0.99,-0.67,-2.37,0.74,22.5,32.71,-29.11,0
102445,0.02,-0.03,0.99,-0.32,-2.29,0.84,22.5,32.71,-29.11,0
102456,0.02,-0.03,0.99,-0.02,-2.18,0.89,22.46,32.69,-29.22,0
102468,0.01,-0.03,0.99,0.7,-1.38,0.64,22.46,32.69,-29.22,0
102480,0.02,-0.03,0.99,0.88,-0.96,0.56,22.46,32.69,-29.22,0
102490,0.02,-0.03,0.99,1.0,-0.79,0.64,22.46,32.69,-29.22,0
102500,0.02,-0.03,0.99,1.14,-0.9,0.81,22.46,32.69,-29.22,0
102512,0.02,-0.04,0.98,1.38,-1.28,1.16,22.43,32.7,-29.32,0
102524,0.02,-0.04,0.98,1.25,-1.39,1.23,22.43,32.7,-29.32,0
102537,0.02,-0.05,0.98,0.92,-1.08,1.12,22.43,32.7,-29.32,0
102549,0.02,-0.05,0.98,0.84,-0.96,0.93,22.43,32.7,-29.32,0
102560,0.02,-0.05,0.98,1.03,-0.79,0.74,22.38,32.77,-29.45,0
102571,0.02,-0.05,0.98,1.87,-0.68,0.41,22.38,32.77,-29.45,0
102583,0.02,-0.05,0.98,2.36,-0.94,0.24,22.38,32.77,-29.45,0
102595,0.02,-0.05,0.98,3.05,-1.21,0.03,22.38,32.77,-29.45,0
102607,0.03,-0.05,0.97,3.37,-1.52,0.02,22.44,32.75,-29.41,0
102619,0.02,-0.05,0.96,3.69,-1.86,0.05,22.44,32.75,-29.41,0
102630,0.02,-0.05,0.95,4.27,-1.54,0.04,22.44,32.75,-29.41,0
102641,0.01,-0.05,0.95,4.25,-1.02,-0.09,22.44,32.75,-29.41,0
102651,0.01,-0.05,0.95,4.08,-0.62,-0.3,22.44,32.75,-29.41,0
102662,0.01,-0.05,0.96,3.83,-0.39,-0.48,22.52,32.81,-29.31,0
102673,0.01,-0.05,0.96,3.08,0.14,-0.7,22.52,32.81,-29.31,0
102683,0.02,-0.04,0.97,2.77,0.3,-0.68,22.52,32.81,-29.31,0
102695,0.02,-0.03,0.98,2.66,0.3,-0.62,22.52,32.81,-29.31,0
102706,0.02,-0.03,0.98,2.8,0.42,-0.46,22.5,32.87,-29.53,0
102718,0.03,-0.04,1.0,2.56,0.83,0.06,22.5,32.87,-29.53,0
102728,0.03,-0.04,1.0,2.02,0.78,0.18,22.5,32.87,-29.53,0
102739,0.03,-0.04,1.0,1.72,0.46,0.29,22.5,32.87,-29.53,0
102753,0.03,-0.04,1.01,2.44,-0.51,0.47,22.39,32.87,-29.53,0
102765,0.03,-0.04,1.01,3.15,-1.04,0.59,22.39,32.87,-29.53,0
102776,0.03,-0.05,1.0,3.88,-2.11,0.56,22.39,32.87,-29.53,0
102787,0.03,-0.06,0.99,3.86,-2.58,0.4,22.39,32.87,-29.53,0
102798,0.03,-0.06,0.99,3.64,-2.78,0.26,22.39,32.87,-29.53,0
102809,0.03,-0.06,0.98,3.23,-2.67,0.21,22.35,33.02,-29.41,0
102821,0.03,-0.06,0.98,2.65,-1.82,0.08,22.35,33.02,-29.41,0
102831,0.03,-0.06,0.98,2.46,-1.5,-0.03,22.35,33.02,-29.41,0
102841,0.03,-0.06,0.98,2.25,-1.34,-0.09,22.35,33.02,-29.41,0
102851,0.03,-0.06,0.98,2.04,-1.29,-0.1,22.35,33.02,-29.41,0
102864,0.03,-0.06,0.97,1.52,-1.41,-0.13,22.31,33.06,-29.19,0
102874,0.03,-0.06,0.97,1.21,-1.35,-0.14,22.31,33.06,-29.19,0
102884,0.02,-0.06,0.97,0.89,-1.22,-0.11,22.31,33.06,-29.19,0
102894,0.02,-0.06,0.97,0.52,-1.02,-0.16,22.31,33.06,-29.19,0
102907,0.02,-0.05,0.97,-0.18,-0.85,-0.38,22.33,33.08,-29.25,0
102917,0.02,-0.05,0.97,-0.26,-0.89,-0.43,22.33,33.08,-29.25,0
102927,0.02,-0.05,0.97,-0.1,-0.77,-0.5,22.33,33.08,-29.25,0
102940,0.01,-0.04,0.97,0.89,-0.62,-0.45,22.33,33.08,-29.25,0
102953,0.01,-0.04,0.97,1.38,-0.54,-0.34,22.34,33.07,-29.19,0
102966,0.02,-0.04,0.97,1.69,-0.53,-0.07,22.34,33.07,-29.19,0
102978,0.02,-0.04,0.97,1.38,-0.52,0.03,22.34,33.07,-29.19,0
102991,0.02,-0.04,0.97,1.01,-0.52,0.29,22.34,33.07,-29.19,0
103002,0.02,-0.04,0.98,1.19,-0.51,0.39,22.3,32.83,-29.12,0
103014,0.02,-0.04,0.98,1.64,-0.4,0.46,22.3,32.83,-29.12,0
103025,0.02,-0.04,0.98,2.15,0.05,0.48,22.3,32.83,-29.12,0
103036,0.02,-0.04,0.98,1.91,0.24,0.51,22.3,32.83,-29.12,0
103047,0.03,-0.04,0.98,1.45,0.27,0.55,22.3,32.83,-29.12,0
103058,0.03,-0.04,0.99,0.87,0.16,0.66,22.25,32.84,-29.36,0
103069,0.02,-0.04,0.99,0.25,-0.09,0.91,22.25,32.84,-29.36,0
103081,0.02,-0.04,0.99,0.33,-0.12,0.99,22.25,32.84,-29.36,0
103093,0.03,-0.04,0.98,1.02,0.03,1.08,22.25,32.84,-29.36,0
103105,0.03,-0.04,0.99,1.47,0.24,0.99,22.39,32.72,-29.47,0
103117,0.03,-0.04,0.99,1.67,0.47,0.85,22.39,32.72,-29.47,0
103127,0.03,-0.04,0.99,1.53,0.58,0.76,22.39,32.72,-29.47,0
103138,0.03,-0.04,1.0,1.25,-0.18,0.88,22.39,32.72,-29.47,0
103150,0.03,-0.04,1.0,1.1,-0.6,1.01,22.39,32.72,-29.47,0
103161,0.03,-0.05,1.0,0.88,-0.96,1.09,22.51,32.79,-29.63,0
103173,0.03,-0.05,0.99,0.61,-1.31,1.2,22.51,32.79,-29.63,0
103184,0.03,-0.05,0.98,0.64,-1.59,1.21,22.51,32.79,-29.63,0
103196,0.03,-0.05,0.98,1.03,-1.89,1.06,22.51,32.79,-29.63,0
103208,0.02,-0.05,0.97,1.39,-1.67,0.93,22.53,32.8,-29.69,0
103220,0.03,-0.05,0.97,1.69,-1.32,0.8,22.53,32.8,-29.69,0
103231,0.03,-0.05,0.97,1.73,-0.96,0.48,22.53,32.8,-29.69,0
103242,0.03,-0.06,0.97,1.58,-0.9,0.3,22.53,32.8,-29.69,0
103252,0.03,-0.05,0.97,1.34,-0.96,0.11,22.45,32.78,-29.88,0
103264,0.03,-0.05,0.97,1.15,-0.99,0.0,22.45,32.78,-29.88,0
103276,0.02,-0.05,0.97,1.12,-0.78,-0.23,22.45,32.78,-29.88,0
103287,0.02,-0.05,0.98,1.28,-0.54,-0.3,22.45,32.78,-29.88,0
103300,0.02,-0.05,0.98,1.78,-0.12,-0.42,22.45,32.78,-29.88,0
103312,0.03,-0.05,0.99,1.86,-0.03,-0.44,22.45,32.83,-30.01,0
103323,0.03,-0.06,0.99,1.53,0.07,-0.49,22.45,32.83,-30.01,0
103335,0.03,-0.05,0.98,0.02,-0.27,-0.7,22.45,32.83,-30.01,0
103347,0.03,-0.05,0.98,-0.4,-0.5,-0.85,22.45,32.83,-30.01,0
103358,0.02,-0.05,0.97,-0.49,-0.53,-0.99,22.52,32.75,-29.99,0
103370,0.02,-0.04,0.97,-0.3,0.41,-1.18,22.52,32.75,-29.99,0
103381,0.02,-0.04,0.97,-0.11,1.09,-1.26,22.52,32.75,-29.99,0
103394,0.03,-0.04,0.97,-0.09,1.64,-1.32,22.52,32.75,-29.99,0
103406,0.03,-0.04,0.97,-0.11,1.49,-1.38,22.46,32.68,-29.7,0
103418,0.03,-0.04,0.98,-0.1,1.22,-1.37,22.46,32.68,-29.7,0
103428,0.03,-0.04,0.98,-0.2,0.55,-1.17,22.46,32.68,-29.7,0
103439,0.03,-0.03,0.98,-0.32,0.26,-0.96,22.46,32.68,-29.7,0
103452,0.03,-0.03,0.98,-0.36,0.11,-0.81,22.42,32.65,-29.59,0
103463,0.03,-0.03,0.98,0.03,0.54,-0.69,22.42,32.65,-29.59,0
103474,0.03,-0.03,0.98,0.38,0.96,-0.74,22.42,32.65,-29.59,0
103484,0.03,-0.03,0.99,0.68,1.14,-0.7,22.42,32.65,-29.59,0
103494,0.03,-0.04,0.99,0.85,1.01,-0.64,22.42,32.65,-29.59,0
103504,0.03,-0.04,0.99,0.69,0.68,-0.54,22.46,32.64,-29.56,0
103516,0.03,-0.04,0.99,-0.65,-0.28,-0.21,22.46,32.64,-29.56,0
103528,0.03,-0.04,0.99,-1.5,-0.75,-0.04,22.46,32.64,-29.56,0
103542,0.03,-0.04,0.99,-2.24,-1.14,0.21,22.46,32.64,-29.56,0
103553,0.03,-0.04,0.99,-2.07,-1.09,0.21,22.48,32.53,-29.28,0
103563,0.03,-0.04,0.98,-1.68,-1.01,0.26,22.48,32.53,-29.28,0
103573,0.03,-0.04,0.99,-1.3,-0.87,0.26,22.48,32.53,-29.28,0
103585,0.04,-0.04,0.99,-0.87,-0.24,0.26,22.48,32.53,-29.28,0
103595,0.04,-0.04,1.0,-0.99,-0.13,0.19,22.48,32.53,-29.28,0
103606,0.04,-0.04,1.0,-1.25,-0.05,0.01,22.47,32.58,-29.3,0
103616,0.04,-0.04,1.0,-1.68,-0.21,-0.17,22.47,32.58,-29.3,0
103628,0.04,-0.04,1.01,-2.31,-1.09,-0.43,22.47,32.58,-29.3,0
103639,0.04,-0.04,1.01,-2.45,-1.64,-0.51,22.47,32.58,-29.3,0
103654,0.04,-0.04,1.0,-3.58,-3.27,-0.31,22.48,32.59,-29.26,0
103666,0.03,-0.03,0.99,-4.24,-3.84,-0.19,22.48,32.59,-29.26,0
103676,0.03,-0.03,0.98,-4.47,-4.04,-0.2,22.48,32.59,-29.26,0
103688,0.03,-0.03,0.97,-3.67,-3.95,-0.26,22.48,32.59,-29.26,0
103698,0.03,-0.03,0.96,-2.95,-3.78,-0.29,22.48,32.59,-29.26,0
103709,0.02,-0.03,0.95,-2.29,-3.61,-0.31,22.44,32.51,-29.53,0
103722,0.02,-0.03,0.95,-1.78,-3.03,-0.4,22.44,32.51,-29.53,0
103734,0.02,-0.02,0.95,-2.01,-2.82,-0.42,22.44,32.51,-29.53,0
103748,0.01,-0.02,0.94,-2.43,-2.86,-0.57,22.44,32.51,-29.53,0
103759,0.01,-0.01,0.94,-2.51,-2.86,-0.74,22.42,32.46,-29.67,0
103769,0.01,-0.01,0.94,-2.7,-2.77,-0.86,22.42,32.46,-29.67,0
103782,0.01,-0.01,0.94,-3.07,-2.5,-0.93,22.42,32.46,-29.67,0
103794,0.01,-0.0,0.93,-3.54,-2.15,-0.84,22.42,32.46,-29.67,0
103805,0.02,0.0,0.94,-3.91,-1.84,-0.71,22.38,32.23,-29.72,0
103817,0.02,0.01,0.94,-4.05,-1.9,-0.17,22.38,32.23,-29.72,0
103828,0.01,0.01,0.95,-3.79,-1.38,0.2,22.38,32.23,-29.72,0
103842,0.02,0.02,0.95,-1.38,-0.15,0.74,22.38,32.23,-29.72,0
103853,0.02,0.02,0.96,0.19,0.2,0.88,22.35,32.02,-29.89,0
103864,0.02,0.01,0.96,1.76,0.56,0.88,22.35,32.02,-29.89,0
103875,0.02,0.01,0.97,4.0,1.35,0.5,22.35,32.02,-29.89,0
103886,0.02,0.0,0.98,4.18,1.7,0.46,22.35,32.02,-29.89,0
103897,0.02,0.0,0.99,3.76,2.08,0.6,22.35,32.02,-29.89,0
103908,0.02,0.0,0.99,3.02,2.63,0.76,22.26,31.88,-29.79,0
103919,0.03,-0.0,1.0,1.07,3.54,1.27,22.26,31.88,-29.79,0
103931,0.04,-0.0,1.01,-0.0,3.58,1.58,22.26,31.88,-29.79,0
103943,0.04,-0.0,1.01,-0.95,3.04,2.31,22.26,31.88,-29.79,0
103955,0.05,-0.01,1.01,-0.64,2.76,2.49,22.2,31.73,-29.69,0
103967,0.05,-0.01,1.02,0.02,2.53,2.48,22.2,31.73,-29.69,0
103977,0.05,-0.01,1.02,0.83,2.27,2.29,22.2,31.73,-29.69,0
103988,0.05,-0.02,1.03,2.16,1.06,1.79,22.2,31.73,-29.69,0
104001,0.05,-0.02,1.02,2.44,0.38,1.45,22.36,31.71,-29.86,0
104014,0.04,-0.02,1.02,2.51,-0.36,1.08,22.36,31.71,-29.86,0
104026,0.05,-0.02,1.02,2.34,-0.6,1.03,22.36,31.71,-29.86,0
104039,0.04,-0.02,1.01,1.21,-1.93,1.25,22.36,31.71,-29.86,0
104050,0.04,-0.02,1.0,0.51,-2.98,1.35,22.34,31.5,-29.79,0
104062,0.04,-0.02,0.99,0.05,-3.83,1.39,22.34,31.5,-29.79,0
104073,0.04,-0.02,0.98,-0.0,-3.97,1.17,22.34,31.5,-29.79,0
104084,0.03,-0.01,0.96,0.43,-3.51,1.02,22.34,31.5,-29.79,0
104094,0.03,-0.01,0.96,0.83,-2.89,0.85,22.34,31.5,-29.79,0
104105,0.03,-0.01,0.96,1.07,-2.33,0.66,22.26,31.5,-29.84,0
104115,0.03,-0.01,0.97,0.97,-2.1,0.38,22.26,31.5,-29.84,0
104126,0.02,-0.01,0.97,0.76,-2.21,0.45,22.26,31.5,-29.84,0
104138,0.02,-0.01,0.97,0.64,-2.26,0.48,22.26,31.5,-29.84,0
104152,0.03,-0.0,0.97,0.89,-2.19,0.47,22.25,31.43,-29.82,0
104164,0.03,-0.0,0.97,1.34,-2.05,0.45,22.25,31.43,-29.82,0
104177,0.03,-0.0,0.98,2.2,-1.33,0.36,22.25,31.43,-29.82,0
104189,0.03,-0.0,0.98,2.06,-1.12,0.44,22.25,31.43,-29.82,0
104200,0.03,-0.0,0.99,1.51,-1.33,0.67,22.31,31.38,-29.9,0
104212,0.02,-0.0,0.98,0.41,-2.09,1.16,22.31,31.38,-29.9,0
104223,0.02,-0.0,0.98,0.34,-2.02,1.3,22.31,31.38,-29.9,0
104237,0.02,-0.01,0.98,0.65,-1.45,1.51,22.31,31.38,-29.9,0
104249,0.03,-0.01,0.98,0.34,-1.29,1.45,22.28,31.33,-29.76,0
104263,0.03,-0.01,0.98,-1.06,-1.43,1.22,22.28,31.33,-29.76,0
104274,0.03,-0.0,0.98,-1.49,-1.66,1.12,22.28,31.33,-29.76,0
104285,0.02,0.0,0.98,-1.24,-1.88,1.0,22.28,31.33,-29.76,0
104296,0.02,0.0,0.98,0.34,-2.1,0.83,22.28,31.33,-29.76,0
104307,0.03,-0.0,0.98,0.99,-1.95,0.83,22.34,31.25,-29.61,0
104319,0.03,-0.0,0.98,1.41,-1.63,0.83,22.34,31.25,-29.61,0
104330,0.03,-0.01,0.98,1.72,-0.78,0.65,22.34,31.25,-29.61,0
104341,0.03,-0.01,0.99,1.57,-0.53,0.43,22.34,31.25,-29.61,0
104352,0.03,-0.01,0.99,1.17,-0.65,0.24,22.46,31.19,-29.72,0
104364,0.03,-0.01,0.99,0.68,-1.37,0.4,22.46,31.19,-29.72,0
104375,0.03,-0.01,0.99,0.91,-1.41,0.46,22.46,31.19,-29.72,0
104387,0.02,-0.01,0.99,1.34,-1.16,0.41,22.46,31.19,-29.72,0
104401,0.03,-0.01,0.99,2.17,-0.74,0.2,22.52,31.07,-29.74,0
104413,0.03,-0.01,0.99,2.41,-0.85,0.19,22.52,31.07,-29.74,0
104427,0.03,-0.01,0.98,2.16,-1.41,0.17,22.52,31.07,-29.74,0
104438,0.03,-0.01,0.98,1.94,-1.41,0.12,22.52,31.07,-29.74,0
104449,0.03,-0.01,0.98,1.97,-1.21,0.01,22.56,31.09,-29.67,0
104461,0.03,-0.01,0.98,2.32,-0.64,-0.33,22.56,31.09,-29.67,0
104473,0.03,-0.01,0.98,2.18,-0.8,-0.51,22.56,31.09,-29.67,0
104483,0.03,-0.01,0.98,2.06,-1.09,-0.6,22.56,31.09,-29.67,0
104495,0.03,-0.0,0.98,2.3,-0.87,-0.8,22.56,31.09,-29.67,0
104506,0.03,-0.0,0.98,2.56,-0.64,-0.84,22.61,31.01,-29.7,0
104517,0.03,-0.0,0.99,2.73,-0.58,-0.79,22.61,31.01,-29.7,0
104529,0.03,-0.0,0.99,2.1,-1.19,-0.41,22.61,31.01,-29.7,0
104541,0.03,-0.0,0.98,1.77,-1.69,-0.18,22.61,31.01,-29.7,0
104553,0.02,-0.0,0.98,1.26,-2.21,-0.0,22.6,30.99,-29.85,0
104564,0.02,-0.0,0.98,0.91,-2.25,-0.06,22.6,30.99,-29.85,0
104576,0.02,-0.0,0.98,0.62,-2.36,-0.07,22.6,30.99,-29.85,0
104586,0.02,-0.0,0.97,0.44,-2.55,0.05,22.6,30.99,-29.85,0
104599,0.02,0.0,0.96,0.63,-2.74,0.24,22.51,30.88,-29.67,0
104609,0.02,0.0,0.96,0.99,-2.41,0.21,22.51,30.88,-29.67,0
104620,0.02,0.0,0.96,1.36,-1.79,0.09,22.51,30.88,-29.67,0
104631,0.02,0.0,0.97,2.01,-0.65,-0.1,22.51,30.88,-29.67,0
104642,0.02,0.01,0.98,2.24,-0.44,-0.06,22.51,30.88,-29.67,0
104653,0.02,0.01,0.98,2.38,-0.56,0.02,22.44,30.93,-29.9,0
104663,0.02,0.01,0.98,2.59,-0.81,0.19,22.44,30.93,-29.9,0
104674,0.02,0.0,0.99,2.36,-0.69,0.46,22.44,30.93,-29.9,0
104684,0.02,-0.0,0.99,1.84,-0.63,0.4,22.44,30.93,-29.9,0
104695,0.03,0.0,0.99,1.31,-0.72,0.32,22.44,30.93,-29.9,0
104706,0.02,0.0,0.99,1.09,-1.03,0.39,22.47,30.87,-29.8,0
104716,0.03,0.0,0.99,1.78,-1.39,0.44,22.47,30.87,-29.8,0
104727,0.03,0.0,0.99,2.48,-1.52,0.51,22.47,30.87,-29.8,0
104739,0.03,-0.0,0.99,2.95,-1.79,0.72,22.47,30.87,-29.8,0
104750,0.03,-0.01,0.99,2.93,-1.99,0.95,22.49,30.93,-29.83,0
104762,0.03,-0.01,0.99,1.09,-2.52,1.23,22.49,30.93,-29.83,0
104772,0.03,-0.01,0.99,-0.12,-3.2,1.37,22.49,30.93,-29.83,0
104782,0.03,-0.01,0.98,-1.13,-3.87,1.6,22.49,30.93,-29.83,0
104792,0.03,-0.01,0.98,-1.69,-4.36,1.73,22.49,30.93,-29.83,0
104805,0.02,-0.01,0.97,-1.04,-4.63,1.57,22.38,30.88,-29.83,0
104815,0.02,-0.0,0.97,-0.27,-4.39,1.49,22.38,30.88,-29.83,0
104825,0.02,-0.0,0.97,0.4,-4.07,1.38,22.38,30.88,-29.83,0
104835,0.02,-0.01,0.97,1.12,-4.03,1.36,22.38,30.88,-29.83,0
104847,0.02,-0.01,0.97,1.95,-4.2,1.09,22.38,30.88,-29.83,0
104858,0.01,-0.01,0.97,2.15,-4.0,0.77,22.3,30.79,-29.76,0
104868,0.01,-0.01,0.97,2.4,-3.49,0.4,22.3,30.79,-29.76,0
104878,0.01,-0.0,0.97,2.68,-2.82,0.12,22.3,30.79,-29.76,0
104890,0.01,-0.0,0.98,2.9,-1.7,-0.05,22.3,30.79,-29.76,0
104901,0.01,-0.0,0.98,2.76,-1.5,-0.07,22.27,30.84,-29.75,0
104912,0.02,0.0,0.98,2.81,-1.47,-0.04,22.27,30.84,-29.75,0
104924,0.01,0.0,0.98,3.14,-1.34,0.1,22.27,30.84,-29.75,0
104936,0.01,0.0,0.98,2.96,-1.1,0.14,22.27,30.84,-29.75,0
104946,0.02,0.0,0.99,2.71,-0.95,0.18,22.27,30.84,-29.75,0
104959,0.01,0.0,0.99,2.63,-1.2,0.22,22.31,30.9,-29.82,0
104969,0.01,0.0,0.99,2.67,-1.23,0.25,22.31,30.9,-29.82,0
104979,0.01,0.0,0.99,2.78,-1.22,0.32,22.31,30.9,-29.82,0
104989,0.01,0.0,0.99,2.91,-1.35,0.48,22.31,30.9,-29.82,0
105002,0.01,-0.0,0.98,2.68,-1.98,0.91,22.48,31.0,-29.81,0
105012,0.01,-0.01,0.98,2.56,-2.05,0.97,22.48,31.0,-29.81,0
105022,0.01,-0.01,0.97,2.63,-1.83,0.93,22.48,31.0,-29.81,0
105032,0.01,-0.01,0.97,2.78,-1.49,0.85,22.48,31.0,-29.81,0
105043,0.01,-0.01,0.97,2.85,-0.96,0.79,22.48,31.0,-29.81,0
105055,0.02,-0.01,0.98,2.56,-0.84,0.8,22.44,31.04,-29.65,0
105065,0.02,-0.01,0.98,2.14,-0.92,0.82,22.44,31.04,-29.65,0
105075,0.02,-0.01,0.98,1.75,-1.1,0.8,22.44,31.04,-29.65,0
105086,0.01,-0.01,0.98,1.86,-1.27,0.89,22.44,31.04,-29.65,0
105097,0.01,-0.01,0.98,2.3,-1.2,0.89,22.44,31.04,-29.65,0
105108,0.01,-0.01,0.98,2.64,-1.03,0.85,22.32,31.03,-29.62,0
105120,0.01,-0.02,0.98,2.3,-0.55,0.75,22.32,31.03,-29.62,0
105131,0.02,-0.02,0.99,1.01,-0.69,0.76,22.32,31.03,-29.62,0
105143,0.02,-0.02,0.99,-0.68,-1.07,0.8,22.32,31.03,-29.62,0
105156,0.02,-0.01,1.0,-3.32,-2.13,1.06,22.25,31.05,-29.64,0
105168,0.01,-0.01,0.99,-3.49,-2.7,1.11,22.25,31.05,-29.64,0
105178,0.02,-0.01,0.99,-3.09,-3.17,1.06,22.25,31.05,-29.64,0
105189,0.02,-0.01,0.99,-2.73,-4.06,0.93,22.25,31.05,-29.64,0
105201,0.02,-0.02,1.0,-3.58,-4.85,0.94,22.3,31.0,-29.62,0
105212,0.03,-0.01,1.0,-5.21,-6.0,1.16,22.3,31.0,-29.62,0
105224,0.02,0.0,0.99,-7.71,-9.27,2.26,22.3,31.0,-29.62,0
105235,0.02,0.0,0.98,-8.04,-10.41,2.84,22.3,31.0,-29.62,0
105245,0.0,0.0,0.97,-7.77,-11.07,3.38,22.3,31.0,-29.62,0
105256,-0.0,0.01,0.97,-7.34,-10.74,3.47,22.38,30.85,-29.75,0
105268,-0.01,0.01,0.96,-5.8,-8.88,2.75,22.38,30.85,-29.75,0
105280,-0.01,0.01,0.97,-4.72,-8.22,2.29,22.38,30.85,-29.75,0
105290,-0.01,0.02,0.98,-3.71,-7.73,1.88,22.38,30.85,-29.75,0
105303,-0.01,0.03,0.98,-2.39,-6.97,1.98,22.3,30.74,-29.75,0
105314,-0.01,0.03,0.98,-2.21,-6.72,2.38,22.3,30.74,-29.75,0
105328,-0.01,0.03,0.98,-1.69,-6.11,2.85,22.3,30.74,-29.75,0
105340,-0.01,0.03,0.98,-0.75,-5.64,2.84,22.3,30.74,-29.75,0
105352,-0.01,0.03,0.98,0.91,-4.78,2.3,22.25,30.63,-29.76,0
105363,-0.01,0.02,0.99,1.22,-4.44,1.82,22.25,30.63,-29.76,0
105373,-0.01,0.02,0.99,1.23,-4.09,1.39,22.25,30.63,-29.76,0
105383,-0.01,0.02,0.99,0.91,-3.76,1.1,22.25,30.63,-29.76,0
105393,-0.01,0.02,0.99,0.28,-3.53,0.95,22.25,30.63,-29.76,0
105406,-0.01,0.03,0.99,-0.69,-3.91,1.03,22.13,30.45,-29.96,0
105417,-0.01,0.03,0.98,-0.46,-4.34,1.2,22.13,30.45,-29.96,0
105428,-0.02,0.03,0.97,0.36,-4.57,1.27,22.13,30.45,-29.96,0
105440,-0.03,0.02,0.96,2.77,-3.92,1.12,22.13,30.45,-29.96,0
105451,-0.03,0.02,0.97,3.44,-3.35,0.97,21.87,30.32,-29.96,0
105461,-0.02,0.02,0.97,3.5,-2.88,0.88,21.87,30.32,-29.96,0
105471,-0.02,0.02,0.97,3.27,-2.65,0.83,21.87,30.32,-29.96,0
105483,-0.02,0.02,0.98,2.43,-2.65,0.84,21.87,30.32,-29.96,0
105493,-0.02,0.02,0.97,2.15,-2.74,0.88,21.87,30.32,-29.96,0
105504,-0.02,0.02,0.97,2.09,-2.74,0.85,21.79,30.36,-29.84,0
105517,-0.02,0.01,0.98,1.69,-2.55,0.65,21.79,30.36,-29.84,0
105529,-0.02,0.01,0.98,1.05,-2.71,0.62,21.79,30.36,-29.84,0
105539,-0.02,0.02,0.98,0.45,-3.15,0.65,21.79,30.36,-29.84,0
105552,-0.02,0.02,0.97,0.37,-3.62,0.77,21.71,30.41,-29.93,0
105562,-0.03,0.02,0.97,1.03,-3.24,0.66,21.71,30.41,-29.93,0
105572,-0.03,0.02,0.97,1.97,-2.54,0.53,21.71,30.41,-29.93,0
105582,-0.03,0.02,0.97,2.74,-1.83,0.46,21.71,30.41,-29.93,0
105593,-0.02,0.02,0.98,2.5,-0.7,0.32,21.71,30.41,-29.93,0
105605,-0.02,0.02,0.98,1.86,-0.36,0.18,21.59,30.27,-30.14,0
105615,-0.02,0.02,0.99,1.34,-0.13,-0.02,21.59,30.27,-30.14,0
105625,-0.02,0.02,0.99,1.0,-0.01,-0.27,21.59,30.27,-30.14,0
105637,-0.02,0.02,0.99,0.68,-0.44,-0.55,21.59,30.27,-30.14,0
105648,-0.02,0.02,0.99,0.87,-0.68,-0.54,21.62,30.27,-30.36,0
105659,-0.02,0.02,0.99,1.39,-0.73,-0.55,21.62,30.27,-30.36,0
105672,-0.02,0.02,0.99,3.28,-0.62,-0.69,21.62,30.27,-30.36,0
105682,-0.02,0.01,0.99,4.17,-0.7,-0.91,21.62,30.27,-30.36,0
105692,-0.02,0.0,0.99,4.77,-0.94,-1.16,21.62,30.27,-30.36,0
105703,-0.01,0.0,0.99,4.74,-1.36,-1.43,21.51,30.31,-30.19,0
105715,-0.02,-0.01,1.0,1.58,-3.3,-2.07,21.51,30.31,-30.19,0
105726,-0.02,0.0,0.99,-0.61,-4.27,-2.1,21.51,30.31,-30.19,0
105737,-0.02,0.01,0.98,-2.04,-5.09,-2.12,21.51,30.31,-30.19,0
105750,-0.03,0.02,0.97,-2.03,-5.58,-1.97,21.51,30.26,-30.18,0
105762,-0.03,0.03,0.97,-1.06,-5.2,-1.85,21.51,30.26,-30.18,0
105773,-0.03,0.03,0.97,1.04,-3.98,-1.89,21.51,30.26,-30.18,0
105784,-0.03,0.02,0.98,0.72,-3.72,-1.87,21.51,30.26,-30.18,0
105796,-0.03,0.02,0.98,-0.25,-3.76,-1.78,21.28,30.22,-30.27,0
105809,-0.03,0.03,0.97,-1.43,-3.8,-1.73,21.28,30.22,-30.27,0
105821,-0.03,0.04,0.97,-0.99,-3.56,-1.7,21.28,30.22,-30.27,0
105834,-0.03,0.04,0.98,1.03,-3.36,-1.38,21.28,30.22,-30.27,0
105845,-0.03,0.03,0.98,1.75,-3.46,-0.94,21.28,30.22,-30.27,0
105856,-0.02,0.03,0.99,1.54,-3.91,-0.15,21.17,30.15,-30.48,0
105869,-0.03,0.03,0.98,-1.05,-5.17,2.21,21.17,30.15,-30.48,0
105881,-0.03,0.03,0.98,-2.2,-6.02,3.04,21.17,30.15,-30.48,0
105895,-0.04,0.03,0.99,-4.16,-7.18,3.66,21.17,30.15,-30.48,0
105906,-0.04,0.04,0.99,-4.68,-7.83,3.39,20.97,30.11,-30.47,0
105919,-0.04,0.04,0.99,-3.07,-10.51,2.96,20.97,30.11,-30.47,0
105930,-0.04,0.04,0.98,-1.25,-12.11,2.84,20.97,30.11,-30.47,0
105941,-0.05,0.03,0.98,0.47,-13.37,2.77,20.97,30.11,-30.47,0
105954,-0.05,0.03,0.97,2.61,-13.86,2.87,20.87,30.04,-30.47,0
105966,-0.06,0.02,0.96,2.99,-13.29,2.74,20.87,30.04,-30.47,0
105979,-0.06,0.02,0.96,3.23,-11.63,1.71,20.87,30.04,-30.47,0
105990,-0.06,0.02,0.97,3.0,-10.85,1.09,20.87,30.04,-30.47,0
106001,-0.06,0.02,0.98,2.25,-10.41,0.74,20.58,30.04,-30.33,0
106013,-0.06,0.02,0.99,-0.37,-12.14,0.81,20.58,30.04,-30.33,0
106024,-0.05,0.02,0.99,-1.88,-14.08,0.87,20.58,30.04,-30.33,0
106036,-0.06,0.02,0.98,-3.13,-16.43,1.0,20.58,30.04,-30.33,0
106047,-0.07,0.02,0.98,-3.94,-18.54,0.96,20.29,29.99,-30.37,0
106058,-0.07,0.03,0.98,-4.27,-20.28,0.56,20.29,29.99,-30.37,0
106070,-0.08,0.04,0.97,-3.62,-22.23,0.03,20.29,29.99,-30.37,0
106084,-0.09,0.05,0.97,-1.11,-25.42,-0.58,20.29,29.99,-30.37,0
106097,-0.1,0.05,0.96,0.25,-26.05,-0.41,19.9,29.85,-30.61,0
106108,-0.12,0.05,0.96,2.52,-23.59,0.15,19.9,29.85,-30.61,0
106119,-0.14,0.03,0.95,2.84,-20.57,-0.14,19.9,29.85,-30.61,0
106130,-0.14,0.03,0.95,2.73,-17.06,-0.56,19.9,29.85,-30.61,0
106141,-0.14,0.03,0.94,2.57,-13.78,-1.07,19.9,29.85,-30.61,0
106154,-0.13,0.04,0.94,3.36,-8.48,-2.51,19.36,29.8,-30.73,0
106164,-0.12,0.03,0.95,3.76,-6.62,-3.07,19.36,29.8,-30.73,0
106176,-0.12,0.04,0.96,3.46,-4.09,-3.24,19.36,29.8,-30.73,0
106187,-0.13,0.04,0.95,3.6,-2.59,-3.06,19.36,29.8,-30.73,0
106198,-0.13,0.04,0.96,4.2,-1.26,-2.91,18.97,29.81,-30.96,0
106212,-0.12,0.03,0.98,5.5,0.92,-2.9,18.97,29.81,-30.96,0
106224,-0.12,0.03,0.98,5.75,1.63,-2.91,18.97,29.81,-30.96,0
106234,-0.11,0.04,0.99,5.87,1.98,-2.79,18.97,29.81,-30.96,0
106248,-0.12,0.04,0.99,6.26,2.58,-2.17,18.73,29.81,-30.79,0
106260,-0.12,0.04,0.99,6.55,3.32,-1.81,18.73,29.81,-30.79,0
106271,-0.12,0.03,0.99,6.69,4.84,-1.0,18.73,29.81,-30.79,0
106282,-0.11,0.03,0.99,6.34,4.81,-0.66,18.73,29.81,-30.79,0
106294,-0.11,0.03,0.99,5.91,4.02,-0.34,18.73,29.81,-30.79,0
106307,-0.11,0.02,0.98,4.77,1.82,0.2,18.57,29.91,-30.78,0
106317,-0.11,0.02,0.98,3.64,1.28,0.49,18.57,29.91,-30.78,0
106328,-0.11,0.02,0.98,2.48,0.99,0.81,18.57,29.91,-30.78,0
106342,-0.11,0.03,0.98,1.44,0.77,1.3,18.57,29.91,-30.78,0
106353,-0.11,0.02,0.98,1.5,0.83,1.45,18.48,29.96,-30.89,0
106363,-0.12,0.02,0.99,1.41,0.97,1.47,18.48,29.96,-30.89,0
106374,-0.11,0.02,0.99,-0.15,0.66,1.21,18.48,29.96,-30.89,0
106385,-0.11,0.02,0.99,-1.19,-0.12,1.07,18.48,29.96,-30.89,0
106396,-0.11,0.02,0.98,-1.8,-0.92,0.95,18.34,29.92,-31.17,0
106408,-0.11,0.03,0.98,-1.16,-1.28,0.58,18.34,29.92,-31.17,0
106419,-0.11,0.03,0.98,-0.34,-0.92,0.41,18.34,29.92,-31.17,0
106430,-0.1,0.03,0.98,0.63,-0.63,0.35,18.34,29.92,-31.17,0
106440,-0.1,0.03,0.98,1.62,-0.56,0.37,18.34,29.92,-31.17,0
106453,-0.1,0.03,0.97,3.03,-0.7,0.35,18.39,29.79,-31.2,0
106463,-0.11,0.03,0.97,2.97,-0.82,0.43,18.39,29.79,-31.2,0
106474,-0.11,0.03,0.98,2.37,-0.92,0.57,18.39,29.79,-31.2,0
106485,-0.11,0.03,0.98,1.4,-1.51,0.86,18.39,29.79,-31.2,0
106498,-0.11,0.03,0.97,1.27,-1.77,0.88,18.34,29.86,-31.18,0
106508,-0.11,0.03,0.97,1.49,-1.74,0.86,18.34,29.86,-31.18,0
106521,-0.12,0.03,0.97,2.89,-0.65,0.68,18.34,29.86,-31.18,0
106533,-0.11,0.03,0.97,3.81,0.0,0.61,18.34,29.86,-31.18,0
106543,-0.11,0.02,0.97,4.47,0.47,0.54,18.34,29.86,-31.18,0
106556,-0.11,0.02,0.98,4.49,0.87,0.2,18.19,29.83,-31.12,0
106567,-0.11,0.02,0.98,4.22,0.96,-0.21,18.19,29.83,-31.12,0
106580,-0.11,0.02,0.98,3.67,0.65,-0.81,18.19,29.83,-31.12,0
106591,-0.11,0.02,0.98,2.99,0.17,-0.63,18.19,29.83,-31.12,0
106602,-0.11,0.02,0.98,2.23,-0.26,-0.29,18.19,29.85,-31.26,0
106612,-0.11,0.02,0.98,1.96,-0.43,-0.02,18.19,29.85,-31.26,0
106623,-0.11,0.02,0.97,2.92,0.03,-0.12,18.19,29.85,-31.26,0
106634,-0.11,0.01,0.97,3.58,0.24,-0.23,18.19,29.85,-31.26,0
106645,-0.11,0.01,0.96,3.88,0.37,-0.37,18.29,29.83,-30.97,0
106657,-0.11,0.01,0.96,3.31,1.32,-0.83,18.29,29.83,-30.97,0
106668,-0.11,0.01,0.95,2.85,2.26,-1.08,18.29,29.83,-30.97,0
106680,-0.11,0.01,0.95,2.47,3.1,-1.27,18.29,29.83,-30.97,0
106693,-0.11,0.02,0.96,1.11,4.48,-1.55,18.29,29.83,-30.97,0
106704,-0.11,0.02,0.96,0.55,5.03,-1.69,18.18,29.87,-31.02,0
106716,-0.1,0.03,0.96,0.45,5.28,-1.85,18.18,29.87,-31.02,0
106728,-0.1,0.04,0.96,2.05,4.65,-1.93,18.18,29.87,-31.02,0
106740,-0.11,0.04,0.96,3.91,4.75,-1.84,18.18,29.87,-31.02,0
106752,-0.12,0.04,0.96,8.9,7.5,-1.33,18.18,29.77,-31.02,0
106762,-0.11,0.03,0.97,11.16,9.8,-0.97,18.18,29.77,-31.02,0
106773,-0.09,0.02,0.98,12.67,11.79,-0.62,18.18,29.77,-31.02,0
106783,-0.08,0.01,0.99,13.27,12.61,-0.16,18.18,29.77,-31.02,0
106797,-0.07,0.01,1.0,11.42,11.41,0.61,18.24,29.8,-30.97,0
106809,-0.07,0.01,0.99,10.58,10.01,0.9,18.24,29.8,-30.97,0
106819,-0.06,0.02,0.99,9.89,8.53,1.46,18.24,29.8,-30.97,0
106831,-0.08,0.02,0.99,7.94,5.87,5.89,18.24,29.8,-30.97,0
106841,-0.08,0.01,0.99,6.5,4.69,7.24,18.24,29.8,-30.97,0
106852,-0.08,0.0,0.98,4.8,3.72,7.56,18.38,30.18,-30.86,0
106862,-0.07,0.0,0.97,3.27,2.56,7.36,18.38,30.18,-30.86,0
106874,-0.07,0.01,0.95,1.9,0.02,7.16,18.38,30.18,-30.86,0
106884,-0.08,0.01,0.95,2.46,-0.39,6.71,18.38,30.18,-30.86,0
106895,-0.08,0.01,0.94,3.12,0.0,6.47,18.7,30.31,-30.88,0
106905,-0.08,0.01,0.94,3.16,0.85,6.86,18.7,30.31,-30.88,0
106917,-0.08,0.01,0.95,3.06,2.34,7.83,18.7,30.31,-30.88,0
106927,-0.08,0.0,0.95,2.84,2.78,7.57,18.7,30.31,-30.88,0
106937,-0.07,-0.0,0.96,2.12,2.97,6.98,18.7,30.31,-30.88,0
106948,-0.07,-0.0,0.97,0.83,2.79,6.49,18.99,30.45,-30.65,0
106960,-0.07,0.01,0.98,-2.63,0.99,5.92,18.99,30.45,-30.65,0
106971,-0.08,0.02,0.98,-3.78,0.08,5.8,18.99,30.45,-30.65,0
106984,-0.08,0.02,0.98,-3.7,-0.62,6.15,18.99,30.45,-30.65,0
106995,-0.08,0.02,0.98,-3.09,-0.59,6.39,19.18,30.56,-30.59,0
107007,-0.08,0.02,0.98,-2.32,-0.3,6.57,19.18,30.56,-30.59,0
107018,-0.08,0.01,0.97,-1.51,1.91,6.09,19.18,30.56,-30.59,0
107029,-0.07,0.0,0.97,-1.97,3.6,5.53,19.18,30.56,-30.59,0
107040,-0.07,0.01,0.97,-2.4,4.9,4.71,19.18,30.56,-30.59,0
107052,-0.06,0.01,0.97,-1.31,4.0,3.32,19.13,30.53,-30.52,0
107063,-0.06,0.02,0.97,0.18,2.0,2.99,19.13,30.53,-30.52,0
107075,-0.06,0.02,0.97,1.51,-0.23,2.96,19.13,30.53,-30.52,0
107089,-0.05,0.01,0.97,1.9,-5.28,3.87,19.13,30.53,-30.52,0
107100,-0.05,0.0,0.96,0.7,-8.45,4.46,19.38,30.47,-30.53,0
107112,-0.06,-0.0,0.96,-3.36,-13.18,4.58,19.38,30.47,-30.53,0
107124,-0.07,0.0,0.95,-4.82,-14.23,4.22,19.38,30.47,-30.53,0
107135,-0.07,0.01,0.96,-4.95,-14.32,3.68,19.38,30.47,-30.53,0
107148,-0.08,0.02,0.97,-1.63,-12.85,2.85,19.43,30.39,-30.65,0
107159,-0.08,0.02,0.98,0.35,-11.88,2.91,19.43,30.39,-30.65,0
107170,-0.08,0.01,0.99,1.86,-11.17,3.1,19.43,30.39,-30.65,0
107181,-0.08,0.01,1.0,3.59,-10.37,3.1,19.43,30.39,-30.65,0
107192,-0.09,0.01,1.02,4.84,-9.47,2.62,19.43,30.39,-30.65,0
107203,-0.09,0.01,1.03,6.59,-8.35,2.15,19.28,30.34,-30.61,0
107217,-0.1,0.0,1.04,8.17,-7.16,2.56,19.28,30.34,-30.61,0
107228,-0.1,-0.0,1.04,7.27,-7.46,2.79,19.28,30.34,-30.61,0
107239,-0.1,-0.01,1.02,5.69,-8.09,2.81,19.28,30.34,-30.61,0
107252,-0.1,-0.02,0.99,2.88,-8.6,2.24,19.13,30.36,-30.69,0
107263,-0.1,-0.03,0.97,2.64,-7.67,1.02,19.13,30.36,-30.69,0
107274,-0.11,-0.03,0.95,3.8,-5.95,-0.9,19.13,30.36,-30.69,0
107286,-0.12,-0.01,0.96,7.59,-1.22,-4.99,19.13,30.36,-30.69,0
107297,-0.09,-0.02,0.97,8.88,-0.33,-5.6,19.08,30.38,-30.6,0
107309,-0.07,-0.03,0.97,8.31,-0.55,-7.18,19.08,30.38,-30.6,0
107321,-0.11,-0.05,0.99,2.68,0.01,-8.73,19.08,30.38,-30.6,0
107332,-0.11,-0.04,0.99,-1.87,2.7,-9.65,19.08,30.38,-30.6,0
107344,-0.11,-0.02,1.0,-6.57,6.1,-10.28,18.97,30.48,-30.64,0
107355,-0.09,0.01,0.99,-10.05,9.06,-10.5,18.97,30.48,-30.64,0
107366,-0.08,0.03,0.98,-9.23,10.46,-9.56,18.97,30.48,-30.64,0
107377,-0.08,0.03,0.98,-6.27,11.37,-8.16,18.97,30.48,-30.64,0
107389,-0.09,0.03,0.98,0.9,14.84,-4.56,18.97,30.48,-30.64,0
107400,-0.08,0.02,0.99,2.8,17.71,-2.62,18.95,30.4,-30.76,0
107411,-0.08,0.01,0.99,3.02,20.18,-0.87,18.95,30.4,-30.76,0
107423,-0.06,0.01,0.98,-0.57,19.84,1.2,18.95,30.4,-30.76,0
107434,-0.06,0.02,0.97,-3.31,16.97,1.6,18.95,30.4,-30.76,0
107445,-0.06,0.04,0.95,-5.97,13.8,2.09,19.11,30.49,-30.67,0
107455,-0.07,0.04,0.94,-7.97,11.62,2.9,19.11,30.49,-30.67,0
107466,-0.07,0.03,0.93,-9.45,11.4,5.02,19.11,30.49,-30.67,0
107478,-0.06,0.03,0.93,-9.22,11.9,5.09,19.11,30.49,-30.67,0
107492,-0.06,0.03,0.97,-7.28,11.06,4.94,19.11,30.49,-30.67,0
107503,-0.05,0.03,0.99,-7.16,9.43,4.42,19.43,30.29,-30.78,0
107514,-0.06,0.05,0.99,-8.18,7.74,3.38,19.43,30.29,-30.78,0
107526,-0.05,0.07,0.99,-9.44,3.08,2.29,19.43,30.29,-30.78,0
107538,-0.05,0.06,0.99,-9.3,1.4,2.18,19.43,30.29,-30.78,0
107549,-0.05,0.06,1.0,-8.48,1.08,2.68,19.71,30.09,-30.84,0
107561,-0.05,0.06,1.0,-5.88,2.0,3.54,19.71,30.09,-30.84,0
107573,-0.05,0.07,1.01,-3.91,2.24,4.66,19.71,30.09,-30.84,0
107586,-0.08,0.07,1.02,-2.93,2.79,7.68,19.71,30.09,-30.84,0
107597,-0.08,0.07,1.02,-3.78,2.7,8.93,19.99,29.96,-30.74,0
107609,-0.09,0.09,1.02,-4.97,1.81,10.0,19.99,29.96,-30.74,0
107621,-0.1,0.11,1.0,-4.81,-2.76,11.81,19.99,29.96,-30.74,0
107632,-0.09,0.09,0.97,-3.25,-5.16,12.26,19.99,29.96,-30.74,0
107643,-0.09,0.06,0.95,-1.47,-6.25,10.57,20.14,29.67,-30.74,0
107655,-0.07,0.05,0.95,1.58,-3.98,4.96,20.14,29.67,-30.74,0
107667,-0.05,0.05,0.96,2.0,-2.93,2.47,20.14,29.67,-30.74,0
107680,-0.02,0.03,0.96,3.35,-3.91,-0.35,20.14,29.67,-30.74,0
107693,-0.01,0.04,0.96,4.78,-4.85,-0.67,20.25,29.51,-30.91,0
107707,-0.02,0.02,0.94,7.75,-5.4,1.08,20.25,29.51,-30.91,0
107718,-0.03,0.01,0.94,9.56,-4.4,1.72,20.25,29.51,-30.91,0
107732,-0.02,-0.0,0.97,12.99,0.14,1.7,20.25,29.51,-30.91,0
107743,-0.01,-0.0,0.99,13.61,1.33,1.5,20.36,29.47,-31.19,0
107754,-0.01,-0.0,1.01,13.06,0.72,1.29,20.36,29.47,-31.19,0
107765,-0.03,0.0,1.02,9.13,-3.49,0.5,20.36,29.47,-31.19,0
107776,-0.05,0.02,1.0,7.21,-4.66,-0.01,20.36,29.47,-31.19,0
107788,-0.05,0.03,0.99,6.38,-4.41,-0.4,20.36,29.47,-31.19,0
107801,-0.04,0.04,0.97,8.38,-1.28,0.31,20.42,29.47,-31.14,0
107812,-0.05,0.04,0.97,11.0,1.14,1.64,20.42,29.47,-31.14,0
107824,-0.05,0.03,0.98,13.95,4.2,3.28,20.42,29.47,-31.14,0
107836,-0.05,0.0,1.0,16.47,10.24,5.41,20.42,29.47,-31.14,0
107847,-0.05,-0.0,1.01,15.25,11.51,5.58,20.4,29.6,-31.14,0
107857,-0.04,-0.0,1.0,13.22,10.91,5.28,20.4,29.6,-31.14,0
107868,-0.04,-0.0,0.99,9.36,7.4,3.9,20.4,29.6,-31.14,0
107879,-0.04,0.01,0.97,8.56,5.59,2.42,20.4,29.6,-31.14,0
107889,-0.05,0.01,0.97,8.25,4.24,1.4,20.4,29.6,-31.14,0
107900,-0.05,0.01,0.98,7.36,3.19,0.69,20.56,29.8,-30.97,0
107913,-0.06,0.02,0.99,3.85,1.59,0.17,20.56,29.8,-30.97,0
107925,-0.05,0.02,0.99,2.18,0.46,-0.22,20.56,29.8,-30.97,0
107935,-0.05,0.02,0.99,0.84,-1.02,-0.47,20.56,29.8,-30.97,0
107948,-0.05,0.02,0.98,-0.54,-3.94,-0.82,20.84,30.03,-30.74,0
107959,-0.05,0.02,0.98,-0.38,-4.82,-0.95,20.84,30.03,-30.74,0
107970,-0.05,0.02,0.97,0.21,-5.24,-1.02,20.84,30.03,-30.74,0
107982,-0.04,0.02,0.97,1.41,-5.06,-1.04,20.84,30.03,-30.74,0
107993,-0.04,0.01,0.98,1.83,-5.23,-0.97,20.85,30.14,-30.62,0
108007,-0.04,0.01,0.98,1.73,-7.35,-0.94,20.85,30.14,-30.62,0
108019,-0.05,0.0,0.97,1.6,-8.5,-1.19,20.85,30.14,-30.62,0
108032,-0.06,0.0,0.98,2.25,-8.52,-1.63,20.85,30.14,-30.62,0
108044,-0.06,0.01,0.99,2.71,-7.96,-1.69,20.89,30.19,-30.52,0
108055,-0.07,0.01,0.99,3.11,-7.66,-1.53,20.89,30.19,-30.52,0
108068,-0.07,0.0,0.95,4.39,-6.49,-1.35,20.89,30.19,-30.52,0
108079,-0.07,0.0,0.95,6.03,-3.99,-1.39,20.89,30.19,-30.52,0
108090,-0.06,0.0,0.97,7.08,-0.48,-1.5,20.89,30.19,-30.52,0
108103,-0.04,0.0,0.99,6.03,3.51,-1.34,20.87,30.24,-30.62,0
108114,-0.05,-0.0,1.0,5.06,3.69,-0.96,20.87,30.24,-30.62,0
108126,-0.05,-0.0,1.01,3.83,2.52,-0.54,20.87,30.24,-30.62,0
108137,-0.06,-0.0,0.99,3.64,1.46,-0.48,20.87,30.24,-30.62,0
108148,-0.05,-0.0,0.98,3.23,0.55,-0.44,20.91,30.35,-30.73,0
108161,-0.05,0.0,0.95,2.71,-0.69,-0.14,20.91,30.35,-30.73,0
108173,-0.04,-0.01,0.94,2.94,-1.09,-0.13,20.91,30.35,-30.73,0
108186,-0.04,-0.01,0.93,5.83,1.76,-0.17,20.91,30.35,-30.73,0
108198,-0.04,0.01,1.02,6.66,3.38,0.58,20.8,30.33,-30.56,0
108210,-0.04,0.01,1.02,5.96,3.13,1.51,20.8,30.33,-30.56,0
108222,-0.06,0.0,0.99,4.72,0.35,2.23,20.8,30.33,-30.56,0
108233,-0.06,0.01,0.98,4.27,0.79,2.08,20.8,30.33,-30.56,0
108244,-0.05,0.01,0.97,4.19,1.41,1.98,20.69,30.55,-30.57,0
108256,-0.04,0.01,0.96,5.35,0.02,2.63,20.69,30.55,-30.57,0
108268,-0.05,0.0,0.96,6.31,-0.86,3.02,20.69,30.55,-30.57,0
108278,-0.05,-0.0,0.96,6.95,-1.08,3.04,20.69,30.55,-30.57,0
108289,-0.05,-0.01,0.97,6.37,-0.81,1.82,20.69,30.55,-30.57,0
108301,-0.04,-0.02,0.98,5.64,-0.9,1.13,20.69,30.42,-30.53,0
108312,-0.04,-0.02,0.98,4.83,-1.06,0.62,20.69,30.42,-30.53,0
108323,-0.03,-0.02,0.98,4.17,-0.8,0.51,20.69,30.42,-30.53,0
108334,-0.03,-0.01,0.97,4.91,-0.57,1.22,20.69,30.42,-30.53,0
108345,-0.04,-0.02,0.97,6.34,-0.77,2.38,20.68,30.58,-30.48,0
108359,-0.05,-0.03,0.98,7.02,-1.11,3.18,20.68,30.58,-30.48,0
108371,-0.05,-0.03,0.99,5.6,-1.31,2.77,20.68,30.58,-30.48,0
108383,-0.05,-0.03,1.0,2.54,-2.47,1.32,20.68,30.58,-30.48,0
108395,-0.06,-0.03,1.0,1.86,-3.4,0.16,20.75,30.69,-30.18,0
108407,-0.06,-0.02,0.99,1.26,-3.74,-0.65,20.75,30.69,-30.18,0
108419,-0.1,-0.0,0.97,1.18,-1.94,-1.83,20.75,30.69,-30.18,0
108431,-0.08,-0.01,0.98,1.62,-0.55,-3.93,20.75,30.69,-30.18,0
108442,-0.05,-0.01,0.98,2.34,0.44,-5.69,20.7,30.75,-29.93,0
108454,-0.04,-0.01,0.97,4.49,1.04,-5.84,20.7,30.75,-29.93,0
108465,-0.03,0.0,0.98,5.07,2.25,-4.98,20.7,30.75,-29.93,0
108476,-0.02,0.0,0.99,4.68,2.94,-3.09,20.7,30.75,-29.93,0
108488,-0.04,-0.02,0.97,4.29,0.83,1.28,20.7,30.75,-29.93,0
108499,-0.05,-0.03,0.97,4.77,0.25,1.94,20.61,30.9,-30.09,0
108509,-0.04,-0.03,0.98,5.02,-0.04,1.82,20.61,30.9,-30.09,0
108522,-0.03,-0.03,0.98,4.51,-1.57,2.53,20.61,30.9,-30.09,0
108533,-0.03,-0.04,0.98,4.3,-2.06,3.9,20.61,30.9,-30.09,0
108544,-0.02,-0.03,1.01,3.89,-1.71,5.35,20.62,31.02,-30.21,0
108555,-0.01,-0.04,1.02,-0.04,-1.59,10.84,20.62,31.02,-30.21,0
108566,-0.06,-0.05,1.01,-2.01,-1.26,12.45,20.62,31.02,-30.21,0
108578,-0.07,-0.04,0.99,-3.79,0.71,12.01,20.62,31.02,-30.21,0
108592,-0.06,-0.02,0.96,-3.17,3.81,8.23,20.68,31.03,-30.16,0
108604,-0.07,-0.01,0.96,-1.5,4.96,6.62,20.68,31.03,-30.16,0
108615,-0.06,-0.0,0.96,0.02,6.0,4.41,20.68,31.03,-30.16,0
108626,-0.04,0.0,0.98,-0.49,4.12,3.91,20.68,31.03,-30.16,0
108638,-0.04,0.0,0.97,-1.43,1.24,3.57,20.68,31.03,-30.16,0
108650,-0.05,0.0,0.97,-3.58,-3.67,2.26,20.72,31.01,-30.19,0
108661,-0.05,0.01,0.95,-3.99,-5.49,1.55,20.72,31.01,-30.19,0
108673,-0.06,0.02,0.95,-3.35,-6.63,0.91,20.72,31.01,-30.19,0
108684,-0.05,0.02,0.95,0.04,-6.34,0.55,20.72,31.01,-30.19,0
108696,-0.06,0.02,0.97,2.56,-6.28,0.78,20.77,30.99,-30.24,0
108707,-0.06,0.0,0.98,4.4,-6.49,0.84,20.77,30.99,-30.24,0
108719,-0.06,-0.01,0.99,5.09,-7.45,-0.16,20.77,30.99,-30.24,0
108730,-0.05,-0.02,0.99,4.75,-8.04,-0.69,20.77,30.99,-30.24,0
108741,-0.06,-0.02,0.99,4.67,-8.23,-1.17,20.85,30.99,-30.28,0
108754,-0.07,-0.04,0.98,5.12,-5.89,-3.12,20.85,30.99,-30.28,0
108765,-0.07,-0.03,0.99,5.13,-3.29,-4.99,20.85,30.99,-30.28,0
108776,-0.06,-0.03,0.98,5.21,-1.11,-6.61,20.85,30.99,-30.28,0
108788,-0.06,-0.03,0.97,6.77,2.51,-8.41,20.85,30.99,-30.28,0
108799,-0.07,-0.03,0.97,8.09,4.88,-9.07,20.8,31.05,-30.22,0
108810,-0.1,-0.02,0.97,9.55,7.64,-10.06,20.8,31.05,-30.22,0
108820,-0.1,-0.02,0.98,11.12,10.02,-12.44,20.8,31.05,-30.22,0
108832,-0.03,-0.01,0.99,15.7,12.18,-16.88,20.8,31.05,-30.22,0
108843,-0.02,-0.01,0.99,18.64,10.6,-16.67,20.79,31.1,-30.23,0
108855,-0.03,-0.01,0.99,24.07,8.38,-14.9,20.79,31.1,-30.23,0
108867,-0.04,-0.02,0.98,26.14,8.28,-14.57,20.79,31.1,-30.23,0
108877,-0.04,-0.01,0.99,27.29,7.58,-12.88,20.79,31.1,-30.23,0
108888,-0.04,-0.03,1.0,28.7,6.81,-9.46,20.79,31.1,-30.23,0
108902,-0.03,-0.07,1.02,28.07,6.28,-6.37,20.84,31.43,-29.98,0
108913,-0.04,-0.09,1.02,24.89,5.92,-6.12,20.84,31.43,-29.98,0
108924,-0.04,-0.09,1.01,18.04,3.25,-7.0,20.84,31.43,-29.98,0
108935,-0.03,-0.07,0.97,15.75,1.11,-7.28,20.84,31.43,-29.98,0
108946,-0.02,-0.07,0.96,15.03,-1.84,-7.37,20.95,31.88,-29.68,0
108960,-0.02,-0.06,0.95,17.2,-8.31,-7.31,20.95,31.88,-29.68,0
108972,-0.03,-0.08,0.96,18.22,-10.1,-7.58,20.95,31.88,-29.68,0
108984,-0.04,-0.09,0.98,19.83,-9.72,-5.89,20.95,31.88,-29.68,0
108997,-0.06,-0.09,1.0,19.83,-7.55,-4.7,20.99,32.25,-29.26,0
109008,-0.06,-0.11,1.0,18.59,-3.87,-2.93,20.99,32.25,-29.26,0
109021,-0.06,-0.1,1.0,13.58,5.71,1.56,20.99,32.25,-29.26,0
109032,-0.06,-0.09,0.99,12.79,9.16,2.56,20.99,32.25,-29.26,0
109044,-0.05,-0.1,0.98,15.31,10.33,1.87,21.04,32.77,-29.0,0
109055,-0.04,-0.13,0.96,15.09,9.59,1.16,21.04,32.77,-29.0,0
109067,-0.05,-0.11,0.95,13.99,9.22,0.32,21.04,32.77,-29.0,0
109080,-0.06,-0.13,0.94,6.77,5.99,-0.03,21.04,32.77,-29.0,0
109091,-0.05,-0.13,0.95,3.32,4.04,0.51,21.07,33.16,-28.79,0
109103,-0.03,-0.13,0.96,0.67,2.93,1.05,21.07,33.16,-28.79,0
109115,0.01,-0.13,0.96,-3.58,3.0,2.94,21.07,33.16,-28.79,0
109126,0.01,-0.12,0.97,-5.26,2.74,4.91,21.07,33.16,-28.79,0
109140,0.01,-0.12,0.97,-7.9,3.77,8.75,21.13,33.42,-28.62,0
109151,0.0,-0.12,0.98,-11.3,5.81,10.21,21.13,33.42,-28.62,0
109162,-0.0,-0.12,0.97,-15.38,8.11,11.43,21.13,33.42,-28.62,0
109175,-0.04,-0.11,0.94,-24.12,6.97,11.58,21.13,33.42,-28.62,0
109186,-0.05,-0.1,0.92,-28.08,2.51,11.42,21.13,33.42,-28.62,0
109197,-0.06,-0.09,0.91,-31.91,-3.32,11.38,21.25,33.64,-28.41,0
109209,-0.03,-0.08,0.93,-39.78,-12.33,11.86,21.25,33.64,-28.41,0
109221,0.02,-0.08,0.95,-41.91,-13.88,10.66,21.25,33.64,-28.41,0
109234,0.07,-0.06,0.98,-35.65,-11.66,1.05,21.25,33.64,-28.41,0
109245,0.06,-0.05,1.0,-26.28,-10.31,-2.55,21.29,33.39,-28.49,0
109257,0.03,-0.02,1.0,-14.88,-10.19,-4.67,21.29,33.39,-28.49,0
109268,-0.01,-0.03,1.01,5.91,-10.42,-6.54,21.29,33.39,-28.49,0
109279,-0.05,-0.03,1.01,13.1,-9.4,-6.74,21.29,33.39,-28.49,0
109290,-0.1,-0.03,1.0,18.93,-8.39,-4.75,21.31,32.92,-29.09,0
109304,-0.1,-0.03,0.98,21.95,-9.38,5.21,21.31,32.92,-29.09,0
109315,-0.08,-0.04,1.0,20.37,-10.62,7.99,21.31,32.92,-29.09,0
109326,-0.04,-0.05,1.02,20.48,-10.77,9.83,21.31,32.92,-29.09,0
109338,0.0,-0.06,1.02,26.49,-7.01,10.66,21.31,32.92,-29.09,0
109349,-0.01,-0.08,1.01,29.42,-2.22,10.46,21.07,33.04,-29.06,0
109360,-0.02,-0.09,1.0,29.59,2.79,10.23,21.07,33.04,-29.06,0
109372,-0.03,-0.1,0.97,23.41,10.28,10.85,21.07,33.04,-29.06,0
109384,-0.04,-0.1,0.95,19.14,12.31,11.33,21.07,33.04,-29.06,0
109395,-0.03,-0.11,0.94,14.14,12.59,11.9,21.1,33.28,-28.95,0
109407,-0.03,-0.1,0.94,1.67,5.87,12.42,21.1,33.28,-28.95,0
109418,-0.03,-0.1,0.95,-4.32,-0.26,11.34,21.1,33.28,-28.95,0
109431,-0.03,-0.1,0.95,-14.71,-10.06,8.86,21.1,33.28,-28.95,0
109443,-0.03,-0.08,0.97,-19.31,-13.27,8.14,21.3,33.32,-28.79,0
109454,-0.03,-0.07,0.98,-22.36,-15.34,7.83,21.3,33.32,-28.79,0
109467,-0.04,-0.06,0.99,-23.98,-16.03,7.08,21.3,33.32,-28.79,0
109478,-0.04,-0.05,0.99,-23.67,-14.84,7.0,21.3,33.32,-28.79,0
109490,-0.05,-0.05,0.99,-23.13,-12.58,6.95,21.19,33.08,-28.85,0
109501,-0.08,-0.05,1.01,-22.95,-10.17,6.72,21.19,33.08,-28.85,0
109513,-0.11,-0.04,1.02,-27.76,-8.79,6.05,21.19,33.08,-28.85,0
109527,-0.19,0.0,1.02,-36.22,-9.44,2.8,21.19,33.08,-28.85,0
109540,-0.23,0.04,1.01,-36.58,-10.12,1.43,21.13,32.85,-29.2,0
109553,-0.18,0.06,0.98,-26.74,-3.85,2.04,21.13,32.85,-29.2,0
109565,-0.1,0.04,0.99,-19.08,3.34,5.45,21.13,32.85,-29.2,0
109579,0.05,0.0,0.99,-5.28,22.07,11.6,21.13,32.85,-29.2,0
109590,0.1,-0.01,0.97,0.82,29.28,11.85,21.05,32.38,-29.48,0
109602,0.12,-0.03,0.94,11.02,28.28,8.24,21.05,32.38,-29.48,0
109613,0.08,-0.04,0.9,13.97,20.78,5.69,21.05,32.38,-29.48,0
109625,0.04,-0.04,0.96,15.65,10.85,3.68,21.05,32.38,-29.48,0
109635,0.01,-0.04,0.97,16.56,4.03,1.94,21.05,32.38,-29.48,0
109647,-0.05,-0.04,1.0,18.53,-3.08,1.0,21.32,32.07,-29.55,0
109658,-0.05,-0.05,0.99,18.71,-3.7,1.46,21.32,32.07,-29.55,0
109669,-0.05,-0.04,0.98,17.84,-3.6,2.71,21.32,32.07,-29.55,0
109682,-0.04,-0.04,0.97,15.15,-3.5,1.57,21.32,32.07,-29.55,0
109693,-0.04,-0.04,0.97,14.07,-4.54,0.03,21.42,31.97,-29.48,0
109705,-0.05,-0.05,0.97,11.77,-9.26,-4.11,21.42,31.97,-29.48,0
109717,-0.05,-0.08,0.97,10.32,-11.7,-5.64,21.42,31.97,-29.48,0
109729,-0.06,-0.08,0.97,8.3,-12.51,-6.12,21.42,31.97,-29.48,0
109740,-0.04,-0.08,0.98,5.61,-11.7,-5.55,21.53,31.86,-29.25,0
109751,-0.01,-0.07,0.98,2.9,-9.47,-3.88,21.53,31.86,-29.25,0
109763,-0.01,-0.07,0.97,0.55,-6.23,-2.29,21.53,31.86,-29.25,0
109777,-0.02,-0.05,0.96,-1.14,-6.31,-1.65,21.53,31.86,-29.25,0
109789,-0.03,-0.05,0.97,-0.04,-9.34,-1.67,21.46,31.94,-29.33,0
109802,-0.06,-0.05,0.97,4.33,-14.78,-3.71,21.46,31.94,-29.33,0
109813,-0.06,-0.04,0.96,6.06,-18.06,-6.15,21.46,31.94,-29.33,0
109824,-0.07,-0.04,0.97,7.95,-22.66,-8.13,21.46,31.94,-29.33,0
109835,-0.07,-0.04,0.98,8.79,-26.88,-9.42,21.46,31.94,-29.33,0
109847,-0.07,-0.04,0.98,8.66,-26.29,-9.17,21.31,31.96,-29.26,0
109859,-0.08,-0.04,0.97,8.65,-26.31,-8.27,21.31,31.96,-29.26,0
109871,-0.11,-0.06,0.97,6.89,-27.01,-7.49,21.31,31.96,-29.26,0
109883,-0.09,-0.07,0.98,3.8,-25.17,-7.2,21.31,31.96,-29.26,0
109895,-0.08,-0.06,0.99,-8.35,-14.32,-3.39,20.84,32.05,-29.41,0
109907,-0.07,-0.04,0.99,-13.16,-7.3,-1.55,20.84,32.05,-29.41,0
109919,-0.08,-0.04,0.97,-14.63,-2.12,-0.59,20.84,32.05,-29.41,0
109931,-0.08,-0.02,0.97,-11.99,-3.28,-1.33,20.84,32.05,-29.41,0
109942,-0.08,-0.0,0.96,-10.37,-4.73,-2.53,20.46,31.98,-29.34,0
109953,-0.09,0.02,0.92,-3.13,-2.86,-3.76,20.46,31.98,-29.34,0
109965,-0.12,0.06,0.85,23.4,21.14,1.03,20.46,31.98,-29.34,0
109976,-0.11,0.04,0.86,39.34,40.01,7.7,20.46,31.98,-29.34,0
109990,-0.09,0.02,0.89,67.29,76.04,27.37,20.1,32.05,-29.41,0
110001,-0.06,-0.02,0.93,70.86,84.32,36.72,20.1,32.05,-29.41,0
110013,-0.03,-0.04,0.96,55.96,77.31,40.86,20.1,32.05,-29.41,0
110025,-0.01,-0.09,0.95,40.23,62.17,36.45,20.1,32.05,-29.41,0
110037,0.0,-0.1,0.96,31.12,51.15,31.02,20.1,32.05,-29.41,0
110048,0.01,-0.1,0.97,22.78,37.84,24.53,20.98,32.52,-28.78,0
110060,0.01,-0.1,0.99,9.77,17.92,14.36,20.98,32.52,-28.78,0
110071,0.01,-0.09,0.99,5.38,12.33,11.47,20.98,32.52,-28.78,0
110085,-0.0,-0.09,0.99,1.23,10.34,9.35,20.98,32.52,-28.78,0
110096,-0.01,-0.09,0.99,1.31,11.31,8.99,21.69,32.91,-28.5,0
110108,-0.01,-0.09,0.99,1.76,11.76,7.99,21.69,32.91,-28.5,0
110120,0.01,-0.1,0.97,1.29,10.2,4.12,21.69,32.91,-28.5,0
110131,0.02,-0.1,0.96,0.7,8.14,2.0,21.69,32.91,-28.5,0
110143,0.03,-0.1,0.95,0.11,1.37,-1.1,22.29,33.2,-28.38,0
110154,0.02,-0.12,0.95,0.25,-2.72,-2.74,22.29,33.2,-28.38,0
110166,0.02,-0.12,0.96,0.0,-6.61,-4.21,22.29,33.2,-28.38,0
110180,0.03,-0.14,0.97,-2.15,-12.61,-5.31,22.29,33.2,-28.38,0
110191,0.05,-0.14,0.97,-3.25,-14.82,-4.63,22.82,33.52,-28.3,0
110204,0.04,-0.12,0.97,-2.75,-16.08,-3.25,22.82,33.52,-28.3,0
110215,0.02,-0.12,0.98,-1.92,-14.93,-3.29,22.82,33.52,-28.3,0
110227,0.02,-0.11,0.99,-1.31,-13.32,-3.01,22.82,33.52,-28.3,0
110238,0.01,-0.12,1.0,-0.9,-10.91,-2.79,22.86,33.64,-28.29,0
110249,0.01,-0.12,0.99,-1.36,-7.6,-2.91,22.86,33.64,-28.29,0
110261,0.01,-0.12,0.99,-3.17,-4.2,-3.6,22.86,33.64,-28.29,0
110275,-0.0,-0.11,0.97,-6.86,-1.74,-5.83,22.86,33.64,-28.29,0
110288,-0.0,-0.1,0.96,-9.08,-2.39,-5.44,23.06,33.64,-28.27,0
110300,0.0,-0.09,0.96,-12.9,-8.58,-7.0,23.06,33.64,-28.27,0
110312,0.01,-0.09,0.96,-14.15,-12.0,-7.96,23.06,33.64,-28.27,0
110326,0.0,-0.08,0.97,-15.56,-16.47,-9.82,23.06,33.64,-28.27,0
110339,-0.01,-0.08,0.97,-15.89,-17.66,-10.12,23.12,33.55,-28.03,0
110350,-0.02,-0.08,0.97,-16.64,-18.65,-9.52,23.12,33.55,-28.03,0
110361,-0.02,-0.07,0.98,-16.98,-18.33,-8.65,23.12,33.55,-28.03,0
110373,-0.02,-0.06,0.98,-17.14,-16.86,-7.14,23.12,33.55,-28.03,0
110385,-0.02,-0.06,0.97,-17.31,-11.17,-4.16,23.12,33.55,-28.03,0
110397,-0.01,-0.06,0.97,-17.29,-9.28,-3.16,22.89,33.41,-28.09,0
110410,-0.01,-0.06,0.97,-18.32,-8.52,-2.37,22.89,33.41,-28.09,0
110421,-0.03,-0.05,0.98,-19.03,-8.46,-2.29,22.89,33.41,-28.09,0
110433,-0.03,-0.05,0.99,-19.11,-7.9,-1.97,22.89,33.41,-28.09,0
110446,-0.04,-0.03,0.98,-18.11,-5.81,-1.25,22.5,33.1,-28.3,0
110458,-0.03,-0.03,0.98,-17.49,-4.78,-0.56,22.5,33.1,-28.3,0
110472,-0.03,-0.03,0.97,-16.58,-3.07,1.18,22.5,33.1,-28.3,0
110484,-0.03,-0.01,0.97,-16.76,-2.89,1.91,22.5,33.1,-28.3,0
110496,-0.03,-0.01,0.97,-13.33,-5.3,1.63,22.29,32.75,-28.84,0
110507,-0.03,-0.01,0.97,-10.54,-6.61,0.42,22.29,32.75,-28.84,0
110519,-0.03,-0.0,0.97,-8.0,-7.17,-1.19,22.29,32.75,-28.84,0
110530,-0.03,0.01,0.96,-4.48,-6.03,-3.24,22.29,32.75,-28.84,0
110542,-0.03,-0.0,0.97,-4.0,-6.34,-3.43,22.16,32.36,-29.07,0
110554,-0.03,-0.0,0.98,-3.98,-6.9,-3.19,22.16,32.36,-29.07,0
110566,-0.04,-0.01,0.98,-3.61,-9.66,-3.0,22.16,32.36,-29.07,0
110577,-0.04,-0.01,0.98,-3.38,-11.69,-3.01,22.16,32.36,-29.07,0
110588,-0.04,-0.01,0.98,-3.86,-13.38,-2.83,22.03,31.97,-29.24,0
110600,-0.05,-0.01,0.99,-6.68,-13.3,-1.88,22.03,31.97,-29.24,0
110612,-0.06,-0.0,1.0,-7.44,-11.49,-1.31,22.03,31.97,-29.24,0
110626,-0.06,0.01,1.0,-5.44,-6.62,-0.14,22.03,31.97,-29.24,0
110637,-0.06,0.01,1.0,-3.54,-4.76,0.18,21.78,31.62,-29.4,0
110648,-0.06,0.01,0.99,-1.76,-3.74,0.16,21.78,31.62,-29.4,0
110661,-0.05,0.0,0.99,0.74,-4.33,-0.35,21.78,31.62,-29.4,0
110671,-0.06,0.0,0.99,1.3,-4.71,-0.58,21.78,31.62,-29.4,0
110681,-0.06,0.0,0.99,1.41,-4.36,-0.68,21.78,31.62,-29.4,0
110692,-0.06,0.0,0.98,1.22,-3.5,-0.72,21.57,31.33,-29.51,0
110704,-0.06,0.02,0.97,0.42,-2.76,-0.5,21.57,31.33,-29.51,0
110716,-0.07,0.02,0.96,-0.12,-3.33,-0.07,21.57,31.33,-29.51,0
110730,-0.05,0.0,0.97,-0.51,-5.94,0.36,21.57,31.33,-29.51,0
110741,-0.05,-0.01,0.97,-0.83,-6.89,-0.2,21.49,31.0,-29.53,0
110753,-0.05,-0.0,0.98,-1.07,-11.93,-1.44,21.49,31.0,-29.53,0
110765,-0.06,0.0,0.98,-0.34,-14.48,-1.93,21.49,31.0,-29.53,0
110777,-0.06,0.0,0.98,0.32,-15.84,-2.23,21.49,31.0,-29.53,0
110790,-0.08,0.0,1.0,1.1,-13.53,-1.77,21.31,30.79,-29.66,0
110802,-0.09,0.0,1.0,1.15,-10.92,-1.15,21.31,30.79,-29.66,0
110815,-0.09,0.0,0.99,0.92,-5.87,0.42,21.31,30.79,-29.66,0
110827,-0.08,0.0,0.98,0.89,-4.05,1.09,21.31,30.79,-29.66,0
110839,-0.08,0.0,0.98,1.05,-2.78,1.93,20.97,30.63,-29.87,0
110850,-0.08,0.01,0.97,1.25,-3.22,1.88,20.97,30.63,-29.87,0
110862,-0.08,0.01,0.98,1.38,-3.99,1.53,20.97,30.63,-29.87,0
110875,-0.08,0.0,0.98,1.41,-4.44,0.74,20.97,30.63,-29.87,0
110886,-0.09,0.0,0.99,1.42,-3.74,0.69,20.69,30.55,-30.12,0
110898,-0.09,0.01,0.99,1.5,-2.43,0.92,20.69,30.55,-30.12,0
110910,-0.09,0.01,0.99,1.83,1.47,1.36,20.69,30.55,-30.12,0
110920,-0.09,0.01,0.99,2.18,2.92,1.66,20.69,30.55,-30.12,0
110930,-0.08,0.01,0.99,2.35,3.85,1.79,20.69,30.55,-30.12,0
110941,-0.08,0.01,0.98,2.07,4.4,1.83,20.52,30.45,-30.17,0
110952,-0.09,0.01,0.98,0.44,4.73,1.43,20.52,30.45,-30.17,0
110964,-0.1,0.01,0.97,-0.14,4.48,1.19,20.52,30.45,-30.17,0
110975,-0.08,0.02,0.98,-0.04,3.45,1.41,20.52,30.45,-30.17,0
110988,-0.08,0.02,0.98,0.84,1.88,1.72,20.44,30.38,-30.2,0
111000,-0.08,0.01,0.98,0.39,2.0,1.22,20.44,30.38,-30.2,0
111011,-0.08,0.01,0.98,-1.43,2.86,-0.02,20.44,30.38,-30.2,0
111022,-0.07,0.01,0.97,-1.88,2.9,-0.44,20.44,30.38,-30.2,0
111033,-0.07,0.01,0.97,-1.53,1.99,-0.73,20.44,30.38,-30.2,0
111047,-0.07,0.01,0.98,-0.71,-0.71,-0.99,20.36,30.43,-30.14,0
111058,-0.07,0.0,0.99,-1.01,-1.59,-1.33,20.36,30.43,-30.14,0
111071,-0.09,0.01,0.99,-3.09,-2.21,-2.14,20.36,30.43,-30.14,0
111082,-0.09,0.02,0.99,-4.12,-2.09,-3.16,20.36,30.43,-30.14,0
111093,-0.08,0.02,0.99,-4.35,-1.37,-3.77,20.37,30.3,-30.41,0
111104,-0.08,0.02,0.99,-3.85,0.09,-3.5,20.37,30.3,-30.41,0
111116,-0.07,0.02,0.98,-1.62,3.08,-2.1,20.37,30.3,-30.41,0
111128,-0.06,0.02,0.97,-0.45,3.82,-1.5,20.37,30.3,-30.41,0
111140,-0.06,0.02,0.96,1.36,1.51,-0.93,20.12,30.19,-30.53,0
111151,-0.06,0.01,0.96,1.58,-0.7,-0.97,20.12,30.19,-30.53,0
111161,-0.06,0.01,0.97,1.29,-3.34,-1.53,20.12,30.19,-30.53,0
111172,-0.06,0.01,0.98,0.81,-6.2,-2.37,20.12,30.19,-30.53,0
111184,-0.07,0.01,1.0,-0.83,-10.7,-3.52,20.12,30.19,-30.53,0
111195,-0.07,0.01,1.01,-2.93,-10.35,-3.41,20.36,30.16,-30.53,0
111207,-0.08,0.01,1.01,-6.05,-8.91,-3.01,20.36,30.16,-30.53,0
111219,-0.06,0.01,1.03,-12.68,-7.08,-1.61,20.36,30.16,-30.53,0
111231,-0.06,0.02,1.02,-16.63,-9.99,-1.0,20.36,30.16,-30.53,0
111244,-0.06,0.04,0.98,-20.73,-23.87,-1.28,20.32,30.1,-30.47,0
111256,-0.07,0.04,0.95,-20.56,-31.89,-1.79,20.32,30.1,-30.47,0
111269,-0.1,0.05,0.93,-16.32,-39.3,-3.04,20.32,30.1,-30.47,0
111280,-0.14,0.06,0.93,-11.95,-36.26,-3.49,20.32,30.1,-30.47,0
111291,-0.14,0.07,0.94,-7.89,-30.25,-3.0,19.83,29.76,-30.65,0
111305,-0.14,0.07,0.97,-2.42,-16.77,0.67,19.83,29.76,-30.65,0
111316,-0.14,0.07,0.97,-0.83,-11.16,2.35,19.83,29.76,-30.65,0
111327,-0.15,0.07,0.98,0.59,-6.59,3.22,19.83,29.76,-30.65,0
111340,-0.13,0.07,0.97,2.14,-0.2,3.69,19.39,29.44,-30.9,0
111351,-0.14,0.07,0.97,2.54,1.43,4.07,19.39,29.44,-30.9,0
111365,-0.13,0.06,0.98,3.47,2.93,3.9,19.39,29.44,-30.9,0
111376,-0.13,0.05,0.97,3.2,3.69,3.71,19.39,29.44,-30.9,0
111387,-0.12,0.05,0.97,2.63,4.48,3.78,19.08,29.22,-30.9,0
111399,-0.12,0.05,0.96,2.47,5.17,3.81,19.08,29.22,-30.9,0
111411,-0.12,0.05,0.96,2.59,4.84,3.4,19.08,29.22,-30.9,0
111424,-0.12,0.05,0.97,2.85,3.75,2.69,19.08,29.22,-30.9,0
111435,-0.12,0.05,0.97,2.79,4.16,2.32,18.95,29.1,-30.95,0
111447,-0.12,0.05,0.97,2.62,5.1,2.07,18.95,29.1,-30.95,0
111459,-0.12,0.06,0.97,2.46,6.16,2.21,18.95,29.1,-30.95,0
111470,-0.11,0.05,0.98,2.63,5.98,2.62,18.95,29.1,-30.95,0
111483,-0.12,0.05,0.98,2.44,6.31,3.65,18.95,29.1,-30.95,0
111495,-0.12,0.05,0.98,2.18,7.04,3.6,18.97,29.11,-31.44,0
111506,-0.11,0.06,0.98,2.01,7.98,3.48,18.97,29.11,-31.44,0
111517,-0.11,0.06,0.98,3.48,9.05,3.93,18.97,29.11,-31.44,0
111528,-0.1,0.06,0.98,4.69,9.45,4.44,18.97,29.11,-31.44,0
111539,-0.1,0.06,0.98,5.47,10.53,5.36,19.03,29.09,-31.51,0
111551,-0.1,0.06,0.98,5.91,12.45,6.17,19.03,29.09,-31.51,0
111563,-0.08,0.05,0.97,6.67,17.17,5.15,19.03,29.09,-31.51,0
111574,-0.07,0.04,0.97,7.03,18.23,4.54,19.03,29.09,-31.51,0
111585,-0.07,0.03,0.96,6.23,17.97,3.78,19.25,28.95,-31.53,0
111597,-0.07,0.03,0.97,2.6,15.76,2.94,19.25,28.95,-31.53,0
111608,-0.07,0.03,0.97,0.41,14.81,2.78,19.25,28.95,-31.53,0
111622,-0.08,0.04,0.97,-3.33,14.23,3.02,19.25,28.95,-31.53,0
111634,-0.09,0.04,0.97,-4.47,14.15,3.38,19.25,28.95,-31.53,0
111645,-0.08,0.05,0.98,-5.12,13.67,3.7,19.52,28.93,-31.34,0
111657,-0.06,0.04,0.99,-4.82,12.25,4.2,19.52,28.93,-31.34,0
111669,-0.06,0.05,0.99,-3.73,12.01,3.99,19.52,28.93,-31.34,0
111679,-0.06,0.05,1.0,-1.83,12.19,3.63,19.52,28.93,-31.34,0
111692,-0.05,0.06,0.99,3.45,13.65,1.77,19.85,28.8,-31.43,0
111702,-0.05,0.06,0.98,5.4,14.5,0.91,19.85,28.8,-31.43,0
111712,-0.06,0.06,0.98,6.62,14.97,0.43,19.85,28.8,-31.43,0
111722,-0.05,0.05,0.97,7.02,14.83,0.66,19.85,28.8,-31.43,0
111735,-0.05,0.05,0.97,6.54,13.17,1.95,20.27,28.68,-31.29,0
111746,-0.05,0.05,0.97,6.17,11.59,2.46,20.27,28.68,-31.29,0
111760,-0.05,0.04,0.97,4.91,9.04,2.5,20.27,28.68,-31.29,0
111771,-0.04,0.04,0.97,4.03,8.41,2.23,20.27,28.68,-31.29,0
111785,-0.02,0.04,0.96,2.19,5.91,2.43,20.64,28.71,-31.27,0
111796,-0.02,0.03,0.97,1.28,4.1,2.42,20.64,28.71,-31.27,0
111807,-0.01,0.03,0.98,0.32,2.88,2.3,20.64,28.71,-31.27,0
111818,-0.01,0.04,0.98,-1.56,2.23,0.96,20.64,28.71,-31.27,0
111829,-0.04,0.05,0.98,-1.46,2.03,0.2,20.64,28.71,-31.27,0
111840,-0.05,0.05,0.98,-0.91,1.95,-0.26,21.07,28.66,-31.33,0
111854,-0.05,0.05,0.99,1.13,3.07,-0.0,21.07,28.66,-31.33,0
111865,-0.04,0.05,0.99,2.28,4.1,0.47,21.07,28.66,-31.33,0
111878,-0.03,0.05,1.0,3.38,7.33,1.35,21.07,28.66,-31.33,0
111890,-0.02,0.04,1.0,3.24,9.54,0.85,21.42,28.73,-31.37,0
