time,acc_x,acc_y,acc_z,gyro_x,gyro_y,gyro_z,mag_x,mag_y,mag_z,label
452202,0.02,0.01,0.99,3.21,0.26,0.31,8.62,-6.5,-28.83,0
452212,0.02,0.01,0.99,3.43,-0.51,-0.33,8.62,-6.5,-28.83,0
452223,0.02,0.01,0.99,3.93,-1.69,-0.77,8.62,-6.5,-28.83,0
452237,0.01,0.0,0.98,6.34,-4.46,-0.82,8.61,-6.41,-28.74,0
452247,0.01,0.0,0.98,7.43,-5.56,-0.31,8.61,-6.41,-28.74,0
452259,0.01,0.01,0.98,8.62,-6.51,0.75,8.61,-6.41,-28.74,0
452270,0.01,0.0,0.99,8.64,-6.8,0.63,8.61,-6.41,-28.74,0
452281,0.01,-0.01,0.99,8.38,-6.92,0.15,8.55,-6.29,-28.75,0
452294,-0.0,-0.02,0.99,6.47,-6.08,-0.73,8.55,-6.29,-28.75,0
452305,-0.01,-0.03,0.99,4.62,-4.83,-1.0,8.55,-6.29,-28.75,0
452317,-0.01,-0.02,0.98,2.32,-3.19,-1.24,8.55,-6.29,-28.75,0
452330,-0.0,-0.01,0.98,-0.93,0.22,-1.51,8.5,-6.26,-28.73,0
452342,0.0,-0.0,0.98,-1.45,1.07,-1.58,8.5,-6.26,-28.73,0
452356,0.01,-0.0,0.98,-1.12,0.68,-1.41,8.5,-6.26,-28.73,0
452368,0.01,-0.0,0.98,-0.68,0.03,-1.15,8.5,-6.26,-28.73,0
452380,0.01,-0.0,0.98,0.03,-0.81,-0.38,8.54,-6.32,-28.67,0
452392,0.0,-0.0,0.98,0.29,-0.68,0.2,8.54,-6.32,-28.67,0
452403,0.0,-0.01,0.98,0.15,-0.25,0.83,8.54,-6.32,-28.67,0
452415,0.0,-0.02,0.98,-0.09,0.73,2.03,8.54,-6.32,-28.67,0
452426,0.0,-0.02,0.98,0.18,0.87,2.46,8.47,-6.27,-28.84,0
452438,0.0,-0.01,0.98,0.47,0.7,2.51,8.47,-6.27,-28.84,0
452450,0.0,0.0,0.98,0.93,0.39,2.11,8.47,-6.27,-28.84,0
452461,0.0,0.0,0.98,1.46,0.44,1.82,8.47,-6.27,-28.84,0
452474,0.0,-0.0,0.98,2.67,0.64,1.5,8.47,-6.27,-28.84,0
452486,0.01,-0.0,0.98,3.19,0.42,1.37,8.37,-6.26,-28.99,0
452498,0.01,-0.0,0.98,3.57,0.25,1.2,8.37,-6.26,-28.99,0
452509,0.01,-0.0,0.98,4.28,0.11,0.82,8.37,-6.26,-28.99,0
452520,0.01,-0.0,0.98,4.7,0.1,0.73,8.37,-6.26,-28.99,0
452531,0.01,-0.0,0.98,4.97,0.2,0.68,8.4,-6.29,-28.82,0
452541,0.01,-0.0,0.98,5.07,0.43,0.64,8.4,-6.29,-28.82,0
452552,0.01,-0.01,0.98,4.97,0.65,0.56,8.4,-6.29,-28.82,0
452563,0.01,-0.01,0.99,4.87,0.36,0.57,8.4,-6.29,-28.82,0
452573,0.01,-0.01,0.99,4.79,0.04,0.66,8.4,-6.29,-28.82,0
452584,0.01,-0.01,0.98,4.64,-0.11,0.8,8.38,-6.31,-28.78,0
452596,0.01,-0.01,0.98,4.12,-0.14,0.83,8.38,-6.31,-28.78,0
452607,0.01,-0.02,0.98,3.86,-0.49,0.71,8.38,-6.31,-28.78,0
452620,0.01,-0.02,0.99,3.44,-1.51,0.58,8.38,-6.31,-28.78,0
452632,0.01,-0.02,0.99,3.02,-1.8,0.5,8.47,-6.27,-28.98,0
452644,0.01,-0.02,0.99,2.39,-1.8,0.47,8.47,-6.27,-28.98,0
452656,0.01,-0.02,0.98,1.22,-1.02,0.51,8.47,-6.27,-28.98,0
452667,0.01,-0.01,0.98,1.06,-0.64,0.5,8.47,-6.27,-28.98,0
452679,0.01,-0.01,0.98,1.36,-0.45,0.53,8.5,-6.23,-29.0,0
452691,0.01,-0.01,0.98,2.56,-1.03,0.57,8.5,-6.23,-29.0,0
452701,0.01,-0.02,0.98,2.89,-1.07,0.57,8.5,-6.23,-29.0,0
452711,0.01,-0.01,0.98,3.04,-0.86,0.63,8.5,-6.23,-29.0,0
452723,0.01,-0.01,0.98,3.53,-0.43,0.62,8.5,-6.23,-29.0,0
452735,0.01,-0.01,0.98,4.16,-0.66,0.54,8.61,-6.16,-29.13,0
452747,0.01,-0.01,0.99,4.89,-1.2,0.38,8.61,-6.16,-29.13,0
452759,0.01,-0.02,0.99,5.48,-2.82,-0.03,8.61,-6.16,-29.13,0
452771,0.01,-0.02,0.99,5.06,-3.29,-0.26,8.61,-6.16,-29.13,0
452783,0.01,-0.02,0.99,3.02,-2.83,-0.64,8.71,-6.04,-29.05,0
452794,0.01,-0.02,0.99,1.56,-1.91,-0.85,8.71,-6.04,-29.05,0
452806,0.01,-0.02,0.99,0.0,-0.74,-1.03,8.71,-6.04,-29.05,0
452820,0.01,-0.02,0.98,-2.44,0.42,-1.11,8.71,-6.04,-29.05,0
452831,0.01,-0.02,0.98,-2.56,0.47,-0.91,8.62,-5.98,-29.06,0
452843,0.01,-0.01,0.98,-1.75,0.27,-0.19,8.62,-5.98,-29.06,0
452855,0.01,-0.01,0.97,-0.82,0.24,0.21,8.62,-5.98,-29.06,0
452865,0.01,-0.01,0.97,0.58,0.05,0.54,8.62,-5.98,-29.06,0
452876,0.01,-0.01,0.97,2.2,-0.32,0.77,8.64,-6.13,-29.05,0
452888,0.01,-0.02,0.98,5.1,-1.16,0.88,8.64,-6.13,-29.05,0
452900,0.01,-0.02,0.98,5.97,-1.47,0.71,8.64,-6.13,-29.05,0
452910,0.0,-0.02,0.98,6.39,-1.77,0.55,8.64,-6.13,-29.05,0
452921,0.0,-0.03,0.99,5.63,-1.9,0.12,8.64,-6.13,-29.05,0
452933,0.0,-0.03,0.99,4.33,-1.47,-0.15,8.56,-6.08,-29.0,0
452945,0.0,-0.03,0.99,2.89,-0.7,-0.41,8.56,-6.08,-29.0,0
452957,0.01,-0.02,0.98,0.67,0.31,-0.65,8.56,-6.08,-29.0,0
452968,0.01,-0.02,0.98,0.39,0.29,-0.64,8.56,-6.08,-29.0,0
452979,0.01,-0.02,0.98,0.55,-0.02,-0.49,8.65,-6.09,-28.83,0
452991,0.01,-0.01,0.98,1.41,-0.98,-0.15,8.65,-6.09,-28.83,0
453003,0.01,-0.02,0.98,1.74,-1.18,-0.05,8.65,-6.09,-28.83,0
453017,0.01,-0.02,0.98,1.98,-1.04,0.2,8.65,-6.09,-28.83,0
453028,0.01,-0.02,0.98,2.04,-0.85,0.21,8.7,-6.05,-28.58,0
453039,0.01,-0.02,0.98,2.2,-0.65,0.15,8.7,-6.05,-28.58,0
453051,0.01,-0.02,0.98,2.91,-0.62,0.07,8.7,-6.05,-28.58,0
453062,0.01,-0.02,0.98,3.36,-0.83,0.11,8.7,-6.05,-28.58,0
453073,0.01,-0.02,0.98,3.68,-1.09,0.13,8.7,-6.05,-28.58,0
453086,0.01,-0.02,0.99,3.63,-1.25,0.06,8.83,-6.01,-28.77,0
453098,0.01,-0.02,0.99,3.24,-1.08,-0.02,8.83,-6.01,-28.77,0
453112,0.01,-0.02,0.98,2.58,-0.66,-0.19,8.83,-6.01,-28.77,0
453123,0.01,-0.02,0.98,2.58,-0.6,-0.26,8.83,-6.01,-28.77,0
453136,0.01,-0.02,0.98,3.43,-0.99,-0.37,8.88,-5.89,-28.8,0
453147,0.01,-0.02,0.98,4.13,-1.35,-0.26,8.88,-5.89,-28.8,0
453159,0.01,-0.02,0.98,4.77,-1.76,-0.02,8.88,-5.89,-28.8,0
453170,0.01,-0.02,0.98,5.65,-2.01,0.18,8.88,-5.89,-28.8,0
453182,0.01,-0.03,0.98,5.6,-1.85,0.17,8.8,-5.84,-28.94,0
453194,0.01,-0.03,0.98,5.39,-1.55,0.22,8.8,-5.84,-28.94,0
453206,0.01,-0.03,0.98,4.74,-0.93,0.06,8.8,-5.84,-28.94,0
453217,0.01,-0.03,0.98,4.16,-0.72,-0.06,8.8,-5.84,-28.94,0
453230,0.01,-0.03,0.98,3.19,-0.53,-0.3,8.81,-5.72,-29.06,0
453241,0.01,-0.03,0.99,2.65,-0.52,-0.34,8.81,-5.72,-29.06,0
453252,0.01,-0.03,0.99,2.12,-0.58,-0.39,8.81,-5.72,-29.06,0
453266,0.01,-0.03,0.99,1.09,-0.63,-0.51,8.81,-5.72,-29.06,0
453277,0.01,-0.03,0.98,0.66,-0.59,-0.57,8.82,-5.67,-29.23,0
453290,0.01,-0.03,0.98,0.06,-0.52,-0.67,8.82,-5.67,-29.23,0
453301,0.01,-0.03,0.98,-0.06,-0.43,-0.69,8.82,-5.67,-29.23,0
453313,0.01,-0.03,0.98,0.05,-0.36,-0.67,8.82,-5.67,-29.23,0
453325,0.01,-0.03,0.98,0.37,-0.43,-0.66,8.81,-5.77,-29.08,0
453337,0.01,-0.02,0.98,0.53,-0.44,-0.65,8.81,-5.77,-29.08,0
453349,0.01,-0.03,0.98,0.66,-0.45,-0.56,8.81,-5.77,-29.08,0
453361,0.01,-0.03,0.98,0.8,-0.64,-0.33,8.81,-5.77,-29.08,0
453373,0.01,-0.03,0.98,0.66,-0.64,-0.26,8.81,-5.77,-29.08,0
453385,0.01,-0.03,0.98,0.24,-0.51,-0.27,8.97,-5.84,-29.03,0
453396,0.01,-0.03,0.98,-0.02,-0.41,-0.33,8.97,-5.84,-29.03,0
453408,0.01,-0.02,0.98,-0.11,-0.44,-0.3,8.97,-5.84,-29.03,0
453419,0.01,-0.02,0.98,0.26,-0.64,-0.08,8.97,-5.84,-29.03,0
453431,0.01,-0.02,0.98,0.58,-0.71,0.08,9.1,-5.73,-29.04,0
453443,0.01,-0.02,0.98,0.88,-0.73,0.17,9.1,-5.73,-29.04,0
453455,0.01,-0.02,0.98,1.37,-0.67,0.16,9.1,-5.73,-29.04,0
453467,0.01,-0.02,0.98,1.7,-0.64,0.14,9.1,-5.73,-29.04,0
453479,0.01,-0.02,0.99,1.89,-0.61,0.12,9.05,-5.81,-28.92,0
453490,0.01,-0.03,0.99,1.59,-0.5,0.05,9.05,-5.81,-28.92,0
453502,0.01,-0.02,0.99,1.0,-0.34,-0.11,9.05,-5.81,-28.92,0
453515,0.01,-0.02,0.98,-0.05,-0.15,-0.34,9.05,-5.81,-28.92,0
453527,0.01,-0.02,0.98,-0.39,-0.17,-0.37,9.1,-5.64,-28.85,0
453541,0.01,-0.02,0.98,-0.56,-0.16,-0.38,9.1,-5.64,-28.85,0
453552,0.02,-0.02,0.98,-0.18,-0.2,-0.35,9.1,-5.64,-28.85,0
453563,0.02,-0.02,0.98,0.44,-0.41,-0.24,9.1,-5.64,-28.85,0
453576,0.02,-0.02,0.98,1.55,-1.04,0.02,9.02,-5.61,-28.87,0
453586,0.02,-0.02,0.98,1.74,-1.16,0.1,9.02,-5.61,-28.87,0
453597,0.02,-0.02,0.98,1.86,-1.02,0.04,9.02,-5.61,-28.87,0
453610,0.01,-0.02,0.98,2.12,-1.05,0.08,9.02,-5.61,-28.87,0
453620,0.01,-0.02,0.98,2.34,-1.1,0.13,9.02,-5.61,-28.87,0
453631,0.01,-0.02,0.98,2.48,-0.99,0.1,9.07,-5.73,-29.03,0
453642,0.01,-0.02,0.98,2.23,-0.76,0.01,9.07,-5.73,-29.03,0
453653,0.01,-0.02,0.98,2.04,-0.65,-0.13,9.07,-5.73,-29.03,0
453665,0.01,-0.02,0.98,2.0,-0.52,-0.25,9.07,-5.73,-29.03,0
453678,0.01,-0.02,0.98,2.25,-0.74,-0.37,9.01,-5.8,-28.89,0
453690,0.01,-0.02,0.98,2.39,-0.94,-0.45,9.01,-5.8,-28.89,0
453703,0.02,-0.02,0.98,2.82,-1.12,-0.47,9.01,-5.8,-28.89,0
453714,0.02,-0.02,0.98,3.22,-1.45,-0.44,9.01,-5.8,-28.89,0
453725,0.02,-0.02,0.98,3.6,-1.86,-0.38,8.98,-5.68,-29.22,0
453739,0.01,-0.03,0.99,3.7,-2.2,-0.27,8.98,-5.68,-29.22,0
453751,0.01,-0.03,0.98,3.1,-1.93,-0.3,8.98,-5.68,-29.22,0
453764,0.01,-0.03,0.98,1.85,-1.18,-0.42,8.98,-5.68,-29.22,0
453776,0.01,-0.02,0.98,1.55,-1.03,-0.35,9.0,-5.67,-29.33,0
453789,0.01,-0.02,0.98,1.68,-1.02,-0.24,9.0,-5.67,-29.33,0
453801,0.01,-0.02,0.98,2.01,-1.1,-0.15,9.0,-5.67,-29.33,0
453814,0.01,-0.02,0.98,2.68,-1.62,0.0,9.0,-5.67,-29.33,0
453826,0.01,-0.02,0.98,2.9,-1.79,0.04,8.99,-5.57,-29.22,0
453838,0.01,-0.02,0.98,2.92,-1.84,0.1,8.99,-5.57,-29.22,0
453850,0.01,-0.02,0.99,2.43,-1.43,0.16,8.99,-5.57,-29.22,0
453861,0.01,-0.02,0.98,2.11,-1.16,0.11,8.99,-5.57,-29.22,0
453875,0.01,-0.02,0.98,2.0,-0.92,0.15,8.98,-5.67,-29.09,0
453887,0.01,-0.03,0.98,2.15,-1.06,0.3,8.98,-5.67,-29.09,0
453899,0.01,-0.02,0.98,2.28,-1.09,0.44,8.98,-5.67,-29.09,0
453911,0.02,-0.02,0.98,2.59,-1.2,0.49,8.98,-5.67,-29.09,0
453921,0.02,-0.02,0.98,3.13,-1.69,0.69,8.98,-5.67,-29.09,0
453932,0.01,-0.02,0.98,3.57,-2.25,0.98,8.99,-5.5,-29.08,0
453943,0.01,-0.02,0.99,3.65,-2.73,1.28,8.99,-5.5,-29.08,0
453954,0.01,-0.02,0.99,3.33,-2.82,1.4,8.99,-5.5,-29.08,0
453965,0.01,-0.02,0.99,3.05,-2.94,1.53,8.99,-5.5,-29.08,0
453979,0.01,-0.02,0.99,3.02,-3.34,2.07,8.92,-5.59,-29.16,0
453989,0.01,-0.02,0.99,3.03,-3.57,2.34,8.92,-5.59,-29.16,0
453999,0.01,-0.03,0.99,3.0,-3.82,2.51,8.92,-5.59,-29.16,0
454011,0.01,-0.03,0.99,2.92,-4.35,2.93,8.92,-5.59,-29.16,0
454024,0.01,-0.03,0.99,2.86,-4.45,3.13,8.91,-5.56,-29.28,0
454034,0.01,-0.03,0.99,2.93,-4.53,3.19,8.91,-5.56,-29.28,0
454047,0.01,-0.03,0.98,3.4,-4.37,2.82,8.91,-5.56,-29.28,0
454059,0.0,-0.03,0.98,3.49,-4.24,2.37,8.91,-5.56,-29.28,0
454074,0.0,-0.02,0.98,3.21,-3.95,1.2,8.81,-5.65,-29.27,0
454085,0.0,-0.02,0.99,2.86,-3.68,0.53,8.81,-5.65,-29.27,0
454096,0.0,-0.02,0.99,2.66,-3.4,-0.08,8.81,-5.65,-29.27,0
454108,0.0,-0.03,0.99,2.97,-3.33,-0.87,8.81,-5.65,-29.27,0
454120,0.0,-0.03,0.99,3.42,-3.5,-0.93,8.81,-5.65,-29.27,0
454132,0.0,-0.03,0.99,3.5,-3.54,-0.76,8.84,-5.66,-29.42,0
454143,0.0,-0.03,0.98,2.81,-3.43,-0.78,8.84,-5.66,-29.42,0
454155,0.0,-0.03,0.97,1.76,-3.38,-0.97,8.84,-5.66,-29.42,0
454166,0.0,-0.02,0.97,-0.54,-3.29,-1.74,8.84,-5.66,-29.42,0
454178,0.0,-0.02,0.98,-1.47,-3.32,-2.14,8.77,-5.5,-29.23,0
454190,-0.01,-0.02,0.98,-2.45,-3.1,-2.49,8.77,-5.5,-29.23,0
454202,-0.0,-0.02,0.98,-4.62,-0.5,-3.06,8.77,-5.5,-29.23,0
454213,0.0,-0.01,0.97,-5.92,0.79,-3.85,8.77,-5.5,-29.23,0
454224,0.01,-0.0,0.97,-6.9,1.18,-4.66,8.69,-5.31,-29.31,0
454236,0.01,-0.01,0.97,-7.02,1.07,-5.14,8.69,-5.31,-29.31,0
454248,0.0,-0.01,0.97,-6.07,1.2,-4.8,8.69,-5.31,-29.31,0
454262,0.01,-0.0,0.97,-2.88,1.16,-3.78,8.69,-5.31,-29.31,0
454274,0.01,-0.0,0.97,-1.25,0.85,-3.31,8.72,-5.46,-29.18,0
454285,0.01,-0.0,0.96,0.32,0.19,-2.81,8.72,-5.46,-29.18,0
454297,0.01,-0.01,0.97,1.74,-0.95,-2.31,8.72,-5.46,-29.18,0
454308,0.01,-0.02,0.97,1.52,-0.85,-2.3,8.72,-5.46,-29.18,0
454322,0.01,-0.03,0.96,0.19,0.08,-2.35,8.72,-5.46,-29.18,0
454333,0.01,-0.03,0.95,-0.48,0.26,-2.37,8.65,-5.4,-29.06,0
454345,0.01,-0.03,0.95,-0.96,0.14,-2.34,8.65,-5.4,-29.06,0
454357,0.01,-0.03,0.95,-1.0,-0.93,-2.2,8.65,-5.4,-29.06,0
454369,0.0,-0.04,0.95,-0.7,-1.61,-2.2,8.65,-5.4,-29.06,0
454382,-0.0,-0.05,0.97,0.59,-2.81,-1.94,8.64,-5.45,-29.23,0
454394,-0.01,-0.05,0.97,1.26,-3.34,-1.68,8.64,-5.45,-29.23,0
454408,-0.01,-0.06,0.98,2.14,-3.95,-0.79,8.64,-5.45,-29.23,0
454420,-0.02,-0.06,0.98,2.07,-3.89,-0.31,8.64,-5.45,-29.23,0
454431,-0.02,-0.06,0.99,1.63,-3.73,0.11,8.62,-5.6,-29.23,0
454443,-0.02,-0.05,1.0,0.3,-2.92,0.69,8.62,-5.6,-29.23,0
454455,-0.02,-0.04,1.0,-0.26,-2.37,0.78,8.62,-5.6,-29.23,0
454469,-0.02,-0.02,1.01,-0.52,-1.29,1.05,8.62,-5.6,-29.23,0
454480,-0.01,-0.01,1.01,-0.19,-0.95,1.31,8.5,-5.55,-29.19,0
454494,-0.0,0.01,0.99,-0.2,-0.88,1.07,8.5,-5.55,-29.19,0
454506,0.0,0.02,0.99,-0.73,-1.01,0.39,8.5,-5.55,-29.19,0
454519,0.0,0.03,0.99,-1.63,-1.48,-1.27,8.5,-5.55,-29.19,0
454531,-0.0,0.03,1.0,-1.64,-1.81,-1.92,8.51,-5.5,-29.33,0
454544,-0.0,0.03,1.0,-0.38,-2.11,-2.53,8.51,-5.5,-29.33,0
454555,-0.01,0.02,1.01,0.48,-2.27,-2.48,8.51,-5.5,-29.33,0
454567,-0.01,0.01,1.0,1.21,-2.49,-2.3,8.51,-5.5,-29.33,0
454580,-0.0,0.0,0.99,1.86,-2.65,-1.6,8.48,-5.57,-29.13,0
454592,-0.0,0.01,0.98,1.8,-2.47,-1.29,8.48,-5.57,-29.13,0
454606,0.01,0.01,0.97,1.82,-1.9,-1.12,8.48,-5.57,-29.13,0
454618,0.01,0.02,0.97,2.18,-1.81,-1.27,8.48,-5.57,-29.13,0
454630,0.02,0.01,0.97,2.83,-2.1,-1.82,8.52,-5.7,-28.89,0
454641,0.01,-0.01,0.97,2.72,-2.17,-2.11,8.52,-5.7,-28.89,0
454653,0.01,-0.02,0.98,2.47,-1.9,-2.29,8.52,-5.7,-28.89,0
454664,0.0,-0.03,0.98,2.6,-1.18,-2.2,8.52,-5.7,-28.89,0
454676,-0.0,-0.04,0.99,3.24,-0.98,-1.85,8.37,-5.75,-28.9,0
454688,-0.01,-0.04,0.99,4.44,-1.02,-1.19,8.37,-5.75,-28.9,0
454700,-0.01,-0.05,0.98,7.08,-1.74,0.42,8.37,-5.75,-28.9,0
454712,-0.01,-0.05,0.98,7.69,-1.92,1.04,8.37,-5.75,-28.9,0
454723,-0.01,-0.05,0.98,7.77,-1.74,1.41,8.48,-5.77,-29.0,0
454734,-0.01,-0.04,0.97,7.51,-1.3,1.5,8.48,-5.77,-29.0,0
454746,-0.01,-0.04,0.97,7.12,-0.88,1.22,8.48,-5.77,-29.0,0
454760,-0.02,-0.03,0.97,5.2,0.23,0.69,8.48,-5.77,-29.0,0
454771,-0.02,-0.03,0.98,4.14,1.23,0.44,8.48,-5.77,-29.0,0
454783,-0.02,-0.03,0.98,3.4,2.24,0.4,8.54,-5.82,-29.2,0
454795,-0.01,-0.01,0.98,2.87,3.34,0.56,8.54,-5.82,-29.2,0
454805,-0.01,-0.01,0.98,3.13,3.13,0.56,8.54,-5.82,-29.2,0
454816,-0.0,-0.0,0.98,3.54,2.56,0.4,8.54,-5.82,-29.2,0
454829,-0.0,-0.0,0.99,4.08,1.14,0.05,8.53,-5.76,-29.19,0
454841,-0.0,-0.0,0.99,4.11,0.74,-0.07,8.53,-5.76,-29.19,0
454855,-0.0,0.0,0.99,3.93,0.17,-0.39,8.53,-5.76,-29.19,0
454866,-0.0,0.0,0.99,4.08,-0.3,-0.6,8.53,-5.76,-29.19,0
454877,-0.0,-0.0,0.99,4.41,-1.03,-0.72,8.54,-5.76,-29.22,0
454890,-0.01,-0.01,0.99,4.91,-2.55,-0.84,8.54,-5.76,-29.22,0
454901,-0.01,-0.02,0.99,5.05,-2.85,-0.9,8.54,-5.76,-29.22,0
454913,-0.0,-0.03,0.99,4.99,-2.8,-0.78,8.54,-5.76,-29.22,0
454925,-0.0,-0.04,0.98,4.53,-2.52,-0.67,8.59,-5.64,-29.21,0
454937,-0.0,-0.04,0.98,3.79,-2.14,-0.54,8.59,-5.64,-29.21,0
454949,0.0,-0.04,0.98,1.86,-1.21,-0.28,8.59,-5.64,-29.21,0
454961,0.0,-0.04,0.98,1.04,-0.74,-0.24,8.59,-5.64,-29.21,0
454976,0.01,-0.03,0.98,0.87,0.02,-0.3,8.68,-5.54,-29.12,0
454987,0.01,-0.02,0.98,1.73,-0.04,-0.25,8.68,-5.54,-29.12,0
455001,0.01,-0.03,0.98,3.6,-1.06,-0.05,8.68,-5.54,-29.12,0
455013,0.01,-0.03,0.98,3.91,-1.26,0.12,8.68,-5.54,-29.12,0
455026,0.01,-0.03,0.98,3.23,-0.3,0.45,8.74,-5.53,-28.96,0
455038,0.01,-0.03,0.98,3.21,0.21,0.69,8.74,-5.53,-28.96,0
455050,0.02,-0.02,0.97,3.77,0.09,0.95,8.74,-5.53,-28.96,0
455062,0.01,-0.02,0.98,3.99,-0.4,0.81,8.74,-5.53,-28.96,0
455073,0.01,-0.02,0.98,4.22,-0.85,0.52,8.83,-5.53,-29.02,0
455086,0.0,-0.03,0.99,4.61,-1.26,0.15,8.83,-5.53,-29.02,0
455098,0.0,-0.04,0.99,4.87,-1.53,0.19,8.83,-5.53,-29.02,0
455111,-0.0,-0.04,0.99,4.98,-2.33,0.54,8.83,-5.53,-29.02,0
455123,-0.01,-0.04,0.98,4.79,-2.5,0.57,8.86,-5.45,-29.02,0
455134,-0.01,-0.04,0.98,4.54,-2.48,0.52,8.86,-5.45,-29.02,0
455147,-0.01,-0.04,0.98,3.07,-1.91,0.25,8.86,-5.45,-29.02,0
455158,-0.01,-0.04,0.98,2.19,-1.43,0.13,8.86,-5.45,-29.02,0
455173,-0.01,-0.04,0.98,1.54,-0.92,0.22,8.92,-5.52,-29.1,0
455184,-0.01,-0.03,0.98,1.92,-1.02,0.51,8.92,-5.52,-29.1,0
455196,-0.01,-0.03,0.98,3.29,-1.8,1.01,8.92,-5.52,-29.1,0
455208,-0.0,-0.02,0.98,3.6,-2.2,0.97,8.92,-5.52,-29.1,0
455219,-0.0,-0.02,0.98,3.45,-2.38,0.71,8.92,-5.52,-29.1,0
455232,-0.0,-0.02,0.99,2.23,-1.85,-0.12,8.99,-5.42,-29.01,0
455243,-0.0,-0.03,0.99,2.01,-1.54,-0.38,8.99,-5.42,-29.01,0
455254,-0.0,-0.03,0.98,2.22,-1.52,-0.37,8.99,-5.42,-29.01,0
455267,-0.0,-0.04,0.97,2.7,-2.04,-0.2,8.99,-5.42,-29.01,0
455278,-0.01,-0.04,0.98,2.53,-1.89,-0.29,8.94,-5.5,-29.18,0
455291,-0.01,-0.04,0.98,2.11,-1.24,-0.57,8.94,-5.5,-29.18,0
455302,-0.0,-0.04,0.99,2.28,-1.41,-0.6,8.94,-5.5,-29.18,0
455314,-0.0,-0.04,0.99,2.54,-1.84,-0.55,8.94,-5.5,-29.18,0
455327,-0.0,-0.04,0.98,2.37,-2.48,-0.59,8.93,-5.35,-29.03,0
455339,-0.0,-0.05,0.98,1.8,-2.48,-0.65,8.93,-5.35,-29.03,0
455353,-0.01,-0.05,0.98,0.11,-1.8,-0.48,8.93,-5.35,-29.03,0
455365,-0.01,-0.05,0.98,-0.83,-1.24,-0.32,8.93,-5.35,-29.03,0
455378,0.0,-0.04,0.98,-1.75,-0.35,0.02,8.89,-5.28,-29.16,0
455390,0.0,-0.03,0.98,-2.02,-0.65,-0.02,8.89,-5.28,-29.16,0
455403,0.0,-0.02,0.98,-2.2,-2.14,-0.36,8.89,-5.28,-29.16,0
455414,0.0,-0.03,0.99,-2.24,-2.72,-0.35,8.89,-5.28,-29.16,0
455425,0.0,-0.03,0.99,-2.54,-2.89,-0.29,8.97,-5.33,-29.34,0
455439,-0.0,-0.03,0.98,-3.07,-2.78,0.1,8.97,-5.33,-29.34,0
455451,-0.01,-0.03,0.98,-2.8,-2.52,0.54,8.97,-5.33,-29.34,0
455465,-0.01,-0.03,0.98,-1.59,-1.53,1.69,8.97,-5.33,-29.34,0
455476,-0.01,-0.03,0.97,-1.05,-1.07,2.06,8.88,-5.39,-29.49,0
455487,-0.01,-0.02,0.97,-0.56,-1.04,2.21,8.88,-5.39,-29.49,0
455499,-0.01,-0.02,0.98,0.1,-2.15,1.63,8.88,-5.39,-29.49,0
455510,-0.01,-0.02,0.98,-0.08,-2.58,1.0,8.88,-5.39,-29.49,0
455522,-0.01,-0.02,0.99,-0.12,-2.63,0.47,8.78,-5.34,-29.61,0
455533,-0.01,-0.03,0.99,0.16,-2.56,0.21,8.78,-5.34,-29.61,0
455545,-0.01,-0.03,0.99,0.55,-2.59,0.27,8.78,-5.34,-29.61,0
455559,-0.01,-0.04,0.98,0.62,-2.24,0.65,8.78,-5.34,-29.61,0
455571,-0.01,-0.03,0.98,0.29,-1.73,0.87,8.75,-5.29,-29.62,0
455583,-0.01,-0.03,0.98,-0.92,-0.42,0.96,8.75,-5.29,-29.62,0
455594,-0.0,-0.02,0.97,-1.54,-0.1,0.77,8.75,-5.29,-29.62,0
455605,-0.0,-0.01,0.98,-2.1,-0.17,0.36,8.75,-5.29,-29.62,0
455619,-0.0,-0.01,0.99,-2.29,-1.22,-0.36,8.75,-5.29,-29.62,0
455631,-0.0,-0.02,0.99,-1.96,-2.22,-0.42,8.76,-5.38,-29.54,0
455645,-0.02,-0.03,0.99,-1.08,-3.8,0.37,8.76,-5.38,-29.54,0
455656,-0.01,-0.03,0.99,-0.21,-4.54,1.25,8.76,-5.38,-29.54,0
455671,-0.01,-0.03,0.98,0.21,-6.04,2.41,8.69,-5.54,-29.46,0
455682,-0.02,-0.02,0.98,-0.05,-6.54,2.47,8.69,-5.54,-29.46,0
455694,-0.02,-0.02,0.98,-1.14,-6.14,2.08,8.69,-5.54,-29.46,0
455706,-0.02,-0.01,0.98,-1.99,-5.5,1.72,8.69,-5.54,-29.46,0
455718,-0.01,-0.0,0.97,-2.66,-4.91,1.2,8.69,-5.54,-29.46,0
455731,-0.0,0.01,0.96,-2.76,-5.56,-0.08,8.51,-5.68,-29.43,0
455743,-0.0,0.01,0.95,-1.99,-7.6,-0.77,8.51,-5.68,-29.43,0
455756,-0.01,0.0,0.96,0.92,-14.02,-1.63,8.51,-5.68,-29.43,0
455768,-0.02,-0.0,0.97,2.51,-17.01,-1.77,8.51,-5.68,-29.43,0
455780,-0.03,-0.01,0.98,5.37,-20.25,-1.39,8.4,-5.71,-29.31,0
455792,-0.04,-0.01,0.99,6.19,-20.24,-0.98,8.4,-5.71,-29.31,0
455803,-0.05,-0.02,0.99,6.32,-19.19,-0.57,8.4,-5.71,-29.31,0
455815,-0.05,-0.02,0.99,4.99,-14.39,-0.03,8.4,-5.71,-29.31,0
455827,-0.05,-0.01,0.99,4.25,-11.77,0.07,8.17,-5.81,-29.17,0
455839,-0.05,-0.01,0.99,3.99,-9.75,0.16,8.17,-5.81,-29.17,0
455851,-0.05,-0.01,0.99,4.08,-7.93,0.26,8.17,-5.81,-29.17,0
455862,-0.05,-0.01,0.99,3.95,-7.43,0.2,8.17,-5.81,-29.17,0
455873,-0.06,-0.02,0.98,3.55,-6.74,0.1,7.94,-5.85,-29.11,0
455885,-0.06,-0.03,0.98,2.51,-4.82,0.1,7.94,-5.85,-29.11,0
455896,-0.06,-0.03,0.98,2.0,-3.78,0.23,7.94,-5.85,-29.11,0
455907,-0.06,-0.03,0.98,1.59,-2.89,0.39,7.94,-5.85,-29.11,0
455920,-0.06,-0.02,0.98,1.22,-1.7,0.5,7.94,-5.85,-29.11,0
455931,-0.06,-0.02,0.98,1.23,-1.39,0.52,7.7,-5.76,-29.19,0
455943,-0.06,-0.02,0.98,0.93,-0.64,0.56,7.7,-5.76,-29.19,0
455954,-0.06,-0.02,0.98,0.61,-0.07,0.42,7.7,-5.76,-29.19,0
455966,-0.06,-0.02,0.98,0.27,0.37,0.18,7.7,-5.76,-29.19,0
455978,-0.06,-0.02,0.98,0.37,0.65,0.05,7.47,-5.73,-29.1,0
455989,-0.05,-0.02,0.98,0.65,0.52,0.19,7.47,-5.73,-29.1,0
456000,-0.05,-0.02,0.98,0.89,0.25,0.35,7.47,-5.73,-29.1,0
456011,-0.05,-0.02,0.98,1.09,-0.13,0.46,7.47,-5.73,-29.1,0
456024,-0.05,-0.02,0.98,1.34,-0.15,0.79,7.31,-5.76,-29.08,0
456035,-0.05,-0.02,0.98,1.25,0.23,0.94,7.31,-5.76,-29.08,0
456046,-0.05,-0.01,0.98,0.68,0.82,0.76,7.31,-5.76,-29.08,0
456057,-0.05,-0.01,0.98,0.81,0.78,0.68,7.31,-5.76,-29.08,0
456069,-0.05,-0.01,0.98,1.12,0.62,0.76,7.31,-5.76,-29.08,0
456081,-0.05,-0.01,0.98,1.43,0.62,0.84,7.23,-5.84,-29.14,0
456092,-0.05,-0.01,0.98,1.4,0.59,0.56,7.23,-5.84,-29.14,0
456103,-0.05,-0.01,0.98,1.6,0.3,0.24,7.23,-5.84,-29.14,0
456117,-0.05,-0.02,0.99,2.24,-0.41,-0.02,7.23,-5.84,-29.14,0
456128,-0.05,-0.02,0.99,2.35,-0.45,0.04,7.22,-5.79,-29.15,0
456141,-0.05,-0.02,0.98,2.15,0.06,0.23,7.22,-5.79,-29.15,0
456152,-0.05,-0.01,0.98,2.1,0.24,0.26,7.22,-5.79,-29.15,0
456164,-0.05,-0.01,0.98,2.19,0.35,0.31,7.22,-5.79,-29.15,0
456177,-0.05,-0.01,0.98,2.77,0.32,0.64,7.25,-5.8,-29.14,0
456188,-0.05,-0.01,0.98,2.98,0.26,0.75,7.25,-5.8,-29.14,0
456199,-0.05,-0.01,0.97,3.17,0.25,0.75,7.25,-5.8,-29.14,0
456210,-0.04,-0.01,0.97,3.64,0.14,0.54,7.25,-5.8,-29.14,0
456222,-0.04,-0.01,0.98,3.89,0.04,0.35,7.16,-5.94,-29.19,0
456233,-0.04,-0.01,0.99,4.19,-0.01,0.26,7.16,-5.94,-29.19,0
456245,-0.05,-0.02,0.99,4.98,-0.3,0.47,7.16,-5.94,-29.19,0
456257,-0.05,-0.02,0.98,5.03,-0.48,0.67,7.16,-5.94,-29.19,0
456271,-0.05,-0.02,0.98,4.34,-0.29,0.75,7.17,-5.93,-29.22,0
456283,-0.05,-0.02,0.98,3.91,-0.08,0.69,7.17,-5.93,-29.22,0
456295,-0.05,-0.03,0.98,3.15,0.27,0.7,7.17,-5.93,-29.22,0
456307,-0.05,-0.02,0.98,2.96,0.35,0.82,7.17,-5.93,-29.22,0
456318,-0.05,-0.02,0.98,2.9,0.44,0.85,7.17,-5.93,-29.22,0
456331,-0.04,-0.02,0.98,2.89,0.65,0.8,7.14,-5.79,-29.09,0
456343,-0.04,-0.02,0.98,2.99,0.57,0.58,7.14,-5.79,-29.09,0
456356,-0.04,-0.02,0.99,3.43,-0.59,0.27,7.14,-5.79,-29.09,0
456367,-0.04,-0.03,0.99,3.34,-1.35,0.21,7.14,-5.79,-29.09,0
456378,-0.05,-0.03,0.98,2.84,-1.87,0.12,7.09,-5.72,-29.15,0
456392,-0.05,-0.02,0.98,1.48,-1.6,-0.24,7.09,-5.72,-29.15,0
456404,-0.05,-0.02,0.98,1.19,-1.18,-0.23,7.09,-5.72,-29.15,0
456418,-0.04,-0.02,0.97,1.59,-0.53,0.21,7.09,-5.72,-29.15,0
456429,-0.04,-0.02,0.98,1.79,-0.37,0.37,7.06,-5.54,-29.03,0
456443,-0.04,-0.02,0.99,1.7,-0.46,0.4,7.06,-5.54,-29.03,0
456455,-0.04,-0.02,0.99,1.43,-0.6,0.47,7.06,-5.54,-29.03,0
456467,-0.04,-0.02,0.98,0.95,-0.83,0.67,7.06,-5.54,-29.03,0
456480,-0.04,-0.02,0.98,0.74,-0.79,0.67,7.07,-5.53,-29.04,0
456491,-0.04,-0.02,0.98,0.53,-0.56,0.51,7.07,-5.53,-29.04,0
456504,-0.05,-0.02,0.98,0.87,-0.12,0.31,7.07,-5.53,-29.04,0
456515,-0.05,-0.02,0.98,1.39,-0.24,0.38,7.07,-5.53,-29.04,0
456527,-0.05,-0.02,0.98,2.19,-0.79,0.41,7.02,-5.58,-28.95,0
456539,-0.05,-0.02,0.99,2.23,-0.96,0.29,7.02,-5.58,-28.95,0
456550,-0.05,-0.03,0.98,2.1,-1.07,0.24,7.02,-5.58,-28.95,0
456564,-0.05,-0.02,0.98,1.69,-0.98,0.18,7.02,-5.58,-28.95,0
456575,-0.05,-0.02,0.98,1.49,-0.78,0.11,7.05,-5.58,-29.32,0
456588,-0.04,-0.02,0.98,1.28,-0.15,0.1,7.05,-5.58,-29.32,0
456599,-0.04,-0.02,0.98,1.19,0.11,0.17,7.05,-5.58,-29.32,0
456611,-0.04,-0.02,0.98,1.14,0.33,0.32,7.05,-5.58,-29.32,0
456624,-0.03,-0.02,0.98,1.27,0.62,0.47,7.03,-5.6,-29.31,0
456635,-0.03,-0.02,0.98,1.58,0.6,0.55,7.03,-5.6,-29.31,0
456646,-0.03,-0.02,0.98,1.88,0.48,0.62,7.03,-5.6,-29.31,0
456658,-0.04,-0.03,0.98,2.13,0.09,0.76,7.03,-5.6,-29.31,0
456670,-0.04,-0.03,0.98,2.03,0.03,0.85,6.97,-5.54,-29.03,0
456684,-0.04,-0.03,0.98,1.67,0.15,1.02,6.97,-5.54,-29.03,0
456695,-0.04,-0.03,0.98,1.49,0.33,1.05,6.97,-5.54,-29.03,0
456709,-0.04,-0.03,0.98,1.19,0.89,1.07,6.97,-5.54,-29.03,0
456720,-0.04,-0.02,0.98,1.03,1.12,0.97,7.0,-5.45,-29.1,0
456732,-0.04,-0.02,0.98,0.94,1.16,0.81,7.0,-5.45,-29.1,0
456744,-0.04,-0.02,0.98,0.96,0.72,0.51,7.0,-5.45,-29.1,0
456755,-0.04,-0.02,0.98,1.17,0.51,0.48,7.0,-5.45,-29.1,0
456766,-0.04,-0.02,0.98,1.55,0.31,0.51,7.0,-5.45,-29.1,0
456779,-0.04,-0.02,0.98,2.32,0.02,0.79,7.1,-5.46,-29.19,0
456790,-0.04,-0.01,0.98,2.54,0.01,0.83,7.1,-5.46,-29.19,0
456804,-0.03,-0.01,0.98,2.76,-0.17,0.6,7.1,-5.46,-29.19,0
456816,-0.03,-0.01,0.98,2.81,-0.5,0.47,7.1,-5.46,-29.19,0
456828,-0.03,-0.01,0.98,2.84,-0.83,0.22,7.09,-5.61,-28.89,0
456839,-0.04,-0.02,0.98,2.85,-0.77,0.23,7.09,-5.61,-28.89,0
456850,-0.04,-0.02,0.98,2.79,-0.68,0.31,7.09,-5.61,-28.89,0
456861,-0.03,-0.02,0.98,2.6,-0.54,0.39,7.09,-5.61,-28.89,0
456874,-0.03,-0.02,0.98,1.82,-0.07,0.35,7.14,-5.5,-28.92,0
456886,-0.03,-0.02,0.98,1.72,0.11,0.33,7.14,-5.5,-28.92,0
456897,-0.03,-0.02,0.98,1.85,-0.27,0.34,7.14,-5.5,-28.92,0
456908,-0.03,-0.03,0.98,1.87,-0.58,0.28,7.14,-5.5,-28.92,0
456920,-0.03,-0.03,0.98,1.91,-0.72,0.26,7.2,-5.56,-28.87,0
456933,-0.03,-0.03,0.98,2.06,-0.77,0.37,7.2,-5.56,-28.87,0
456944,-0.03,-0.03,0.98,2.08,-0.69,0.41,7.2,-5.56,-28.87,0
456955,-0.03,-0.03,0.98,2.04,-0.51,0.49,7.2,-5.56,-28.87,0
456967,-0.03,-0.03,0.98,1.69,0.07,0.57,7.2,-5.56,-28.87,0
456978,-0.03,-0.02,0.98,1.46,0.15,0.5,7.32,-5.69,-28.74,0
456989,-0.03,-0.02,0.98,1.36,0.09,0.41,7.32,-5.69,-28.74,0
457002,-0.03,-0.02,0.98,1.39,-0.28,0.45,7.32,-5.69,-28.74,0
457012,-0.03,-0.02,0.98,1.38,-0.42,0.38,7.32,-5.69,-28.74,0
457023,-0.03,-0.02,0.98,1.44,-0.5,0.21,7.32,-5.67,-28.71,0
457036,-0.03,-0.02,0.98,1.88,-0.57,0.17,7.32,-5.67,-28.71,0
457047,-0.03,-0.02,0.98,2.06,-0.73,0.26,7.32,-5.67,-28.71,0
457058,-0.04,-0.02,0.98,2.15,-0.89,0.43,7.32,-5.67,-28.71,0
457071,-0.03,-0.02,0.98,2.97,-0.95,1.34,7.29,-5.59,-28.62,0
457083,-0.04,-0.02,0.98,3.16,-1.13,1.57,7.29,-5.59,-28.62,0
457094,-0.03,-0.02,0.98,4.12,-1.79,2.21,7.29,-5.59,-28.62,0
457105,-0.03,-0.02,0.98,4.34,-2.03,2.09,7.29,-5.59,-28.62,0
457117,-0.03,-0.02,0.98,4.5,-1.96,2.08,7.29,-5.59,-28.62,0
457130,-0.03,-0.03,0.98,4.06,-1.34,2.11,7.36,-5.5,-28.55,0
457142,-0.03,-0.03,0.98,3.82,-1.29,1.81,7.36,-5.5,-28.55,0
457156,-0.03,-0.03,0.98,3.67,-1.69,1.14,7.36,-5.5,-28.55,0
457168,-0.03,-0.03,0.98,3.66,-1.8,0.88,7.36,-5.5,-28.55,0
457179,-0.03,-0.03,0.98,3.51,-1.85,0.62,7.39,-5.54,-28.55,0
457191,-0.04,-0.04,0.98,2.48,-1.75,0.19,7.39,-5.54,-28.55,0
457203,-0.04,-0.04,0.98,1.78,-1.44,0.03,7.39,-5.54,-28.55,0
457216,-0.03,-0.03,0.98,1.17,-1.12,0.01,7.39,-5.54,-28.55,0
457228,-0.03,-0.03,0.98,1.29,-1.39,0.09,7.31,-5.53,-28.8,0
457240,-0.03,-0.03,0.98,1.28,-1.55,0.01,7.31,-5.53,-28.8,0
457251,-0.04,-0.03,0.98,1.05,-1.39,-0.08,7.31,-5.53,-28.8,0
457263,-0.04,-0.03,0.98,0.7,-1.17,-0.11,7.31,-5.53,-28.8,0
457276,-0.03,-0.02,0.98,0.63,-0.78,-0.08,7.33,-5.58,-28.93,0
457288,-0.03,-0.02,0.98,1.09,-0.77,0.02,7.33,-5.58,-28.93,0
457302,-0.03,-0.02,0.98,1.85,-0.86,0.19,7.33,-5.58,-28.93,0
457314,-0.03,-0.03,0.98,2.24,-0.71,0.31,7.33,-5.58,-28.93,0
457325,-0.03,-0.03,0.98,2.43,-0.6,0.39,7.35,-5.6,-28.99,0
457337,-0.03,-0.02,0.98,2.5,-0.65,0.22,7.35,-5.6,-28.99,0
457348,-0.03,-0.03,0.98,2.64,-0.85,-0.01,7.35,-5.6,-28.99,0
457362,-0.03,-0.04,0.98,3.02,-1.81,-0.12,7.35,-5.6,-28.99,0
457374,-0.03,-0.04,0.98,3.04,-2.19,-0.03,7.33,-5.54,-29.08,0
457386,-0.03,-0.04,0.98,2.89,-1.67,0.3,7.33,-5.54,-29.08,0
457398,-0.03,-0.04,0.98,2.99,-0.94,0.65,7.33,-5.54,-29.08,0
457410,-0.03,-0.04,0.98,2.94,0.01,1.03,7.33,-5.54,-29.08,0
457423,-0.03,-0.03,0.98,2.13,2.22,1.66,7.19,-5.47,-29.23,0
457434,-0.03,-0.02,0.98,1.85,2.97,1.9,7.19,-5.47,-29.23,0
457445,-0.02,-0.02,0.98,1.71,3.24,1.99,7.19,-5.47,-29.23,0
457457,-0.02,-0.01,0.98,2.05,1.82,1.68,7.19,-5.47,-29.23,0
457469,-0.02,-0.02,0.98,2.34,0.5,1.32,7.2,-5.48,-29.11,0
457483,-0.03,-0.03,0.99,2.44,-1.92,0.87,7.2,-5.48,-29.11,0
457495,-0.03,-0.04,0.98,2.06,-2.57,0.8,7.2,-5.48,-29.11,0
457508,-0.04,-0.04,0.98,1.13,-2.43,0.86,7.2,-5.48,-29.11,0
457520,-0.04,-0.03,0.98,1.02,-1.85,0.94,7.16,-5.39,-28.96,0
457532,-0.04,-0.03,0.98,1.65,-0.74,1.21,7.16,-5.39,-28.96,0
457544,-0.04,-0.03,0.98,2.16,-0.39,1.36,7.16,-5.39,-28.96,0
457555,-0.04,-0.03,0.98,2.68,-0.26,1.49,7.16,-5.39,-28.96,0
457567,-0.03,-0.03,0.98,3.24,-0.56,1.48,7.16,-5.39,-28.96,0
457579,-0.03,-0.03,0.98,3.13,-0.74,1.33,7.08,-5.31,-28.95,0
457591,-0.03,-0.03,0.98,2.8,-0.81,1.13,7.08,-5.31,-28.95,0
457603,-0.03,-0.03,0.98,2.27,-0.83,0.71,7.08,-5.31,-28.95,0
457615,-0.03,-0.03,0.98,2.31,-0.93,0.71,7.08,-5.31,-28.95,0
457627,-0.03,-0.03,0.98,2.35,-1.24,0.84,7.26,-5.26,-28.75,0
457638,-0.03,-0.03,0.98,2.18,-1.31,0.8,7.26,-5.26,-28.75,0
457650,-0.03,-0.04,0.98,1.93,-1.34,0.75,7.26,-5.26,-28.75,0
457661,-0.03,-0.04,0.98,1.09,-1.48,0.81,7.26,-5.26,-28.75,0
457673,-0.03,-0.04,0.98,0.52,-1.33,0.79,7.24,-5.26,-28.69,0
457685,-0.03,-0.03,0.98,-0.03,-1.09,0.72,7.24,-5.26,-28.69,0
457697,-0.03,-0.03,0.98,-0.6,-0.49,0.49,7.24,-5.26,-28.69,0
457709,-0.03,-0.03,0.98,-0.44,-0.33,0.46,7.24,-5.26,-28.69,0
457720,-0.03,-0.03,0.98,0.03,-0.37,0.48,7.23,-5.26,-28.75,0
457732,-0.03,-0.03,0.98,1.04,-0.75,0.61,7.23,-5.26,-28.75,0
457744,-0.03,-0.03,0.98,1.18,-0.77,0.59,7.23,-5.26,-28.75,0
457757,-0.03,-0.03,0.98,1.2,-0.69,0.48,7.23,-5.26,-28.75,0
457768,-0.03,-0.03,0.98,1.34,-0.82,0.46,7.12,-5.28,-28.62,0
457781,-0.03,-0.03,0.98,1.79,-0.96,0.49,7.12,-5.28,-28.62,0
457792,-0.03,-0.03,0.98,1.99,-0.84,0.54,7.12,-5.28,-28.62,0
457804,-0.03,-0.03,0.98,1.98,-0.63,0.6,7.12,-5.28,-28.62,0
457819,-0.03,-0.03,0.98,1.65,0.02,0.51,7.19,-5.28,-28.87,0
457830,-0.03,-0.03,0.98,1.41,0.31,0.37,7.19,-5.28,-28.87,0
457841,-0.03,-0.03,0.98,1.01,0.48,0.2,7.19,-5.28,-28.87,0
457852,-0.03,-0.03,0.98,0.95,0.31,0.25,7.19,-5.28,-28.87,0
457863,-0.03,-0.03,0.98,0.77,0.1,0.3,7.19,-5.28,-28.87,0
457874,-0.03,-0.03,0.98,0.64,-0.01,0.37,7.12,-5.32,-29.07,0
457886,-0.03,-0.03,0.98,1.07,-0.05,0.6,7.12,-5.32,-29.07,0
457898,-0.03,-0.02,0.98,1.4,-0.05,0.68,7.12,-5.32,-29.07,0
457911,-0.02,-0.02,0.98,2.17,-0.05,0.93,7.12,-5.32,-29.07,0
457922,-0.02,-0.02,0.98,2.42,-0.07,0.94,7.13,-5.33,-29.01,0
457933,-0.02,-0.02,0.98,2.48,-0.28,0.79,7.13,-5.33,-29.01,0
457946,-0.02,-0.03,0.98,2.54,-0.88,0.36,7.13,-5.33,-29.01,0
457958,-0.02,-0.03,0.98,2.67,-1.13,0.34,7.13,-5.33,-29.01,0
457970,-0.03,-0.03,0.98,2.6,-1.34,0.25,7.2,-5.42,-29.02,0
457981,-0.03,-0.03,0.98,2.6,-1.22,0.14,7.2,-5.42,-29.02,0
457993,-0.03,-0.03,0.98,2.67,-1.11,0.11,7.2,-5.42,-29.02,0
458007,-0.03,-0.03,0.98,3.03,-1.48,0.21,7.2,-5.42,-29.02,0
458018,-0.03,-0.03,0.98,3.44,-1.61,0.29,7.16,-5.46,-28.83,0
458032,-0.03,-0.03,0.98,4.46,-1.48,0.43,7.16,-5.46,-28.83,0
458044,-0.02,-0.02,0.98,5.17,-1.53,0.55,7.16,-5.46,-28.83,0
458054,-0.02,-0.02,0.98,5.86,-1.67,0.66,7.16,-5.46,-28.83,0
458065,-0.02,-0.03,0.98,5.96,-1.62,0.4,7.16,-5.46,-28.83,0
458077,-0.03,-0.04,0.98,5.22,-1.52,0.2,7.22,-5.42,-28.94,0
458089,-0.03,-0.04,0.98,4.42,-1.43,0.1,7.22,-5.42,-28.94,0
458101,-0.03,-0.04,0.98,3.1,-1.28,0.22,7.22,-5.42,-28.94,0
458113,-0.03,-0.04,0.98,2.59,-1.02,0.28,7.22,-5.42,-28.94,0
458125,-0.03,-0.03,0.98,2.43,-0.69,0.08,7.08,-5.36,-29.02,0
458136,-0.03,-0.04,0.98,2.62,-1.05,-0.09,7.08,-5.36,-29.02,0
458148,-0.03,-0.04,0.98,2.69,-1.46,-0.22,7.08,-5.36,-29.02,0
458159,-0.03,-0.04,0.98,2.35,-1.39,-0.29,7.08,-5.36,-29.02,0
458171,-0.03,-0.04,0.98,2.11,-1.2,-0.2,7.14,-5.27,-28.95,0
458182,-0.03,-0.04,0.98,1.89,-1.13,-0.09,7.14,-5.27,-28.95,0
458195,-0.03,-0.03,0.98,1.66,-0.62,-0.15,7.14,-5.27,-28.95,0
458206,-0.02,-0.03,0.98,1.78,-0.5,-0.13,7.14,-5.27,-28.95,0
458218,-0.02,-0.03,0.98,2.03,-0.57,-0.04,7.05,-5.18,-28.88,0
458230,-0.03,-0.03,0.98,2.26,-0.74,0.01,7.05,-5.18,-28.88,0
458242,-0.03,-0.04,0.98,2.42,-0.91,0.08,7.05,-5.18,-28.88,0
458255,-0.03,-0.04,0.98,2.49,-1.25,0.28,7.05,-5.18,-28.88,0
458266,-0.03,-0.04,0.98,2.37,-1.25,0.41,7.05,-5.18,-28.88,0
458277,-0.03,-0.04,0.98,2.17,-1.09,0.52,7.18,-5.24,-28.79,0
458288,-0.03,-0.04,0.98,1.8,-0.39,0.52,7.18,-5.24,-28.79,0
458299,-0.03,-0.03,0.98,1.9,-0.25,0.5,7.18,-5.24,-28.79,0
458311,-0.03,-0.04,0.98,2.19,-0.43,0.53,7.18,-5.24,-28.79,0
458324,-0.03,-0.04,0.98,2.59,-1.08,0.66,7.18,-5.33,-28.8,0
458335,-0.03,-0.04,0.98,2.73,-1.11,0.72,7.18,-5.33,-28.8,0
458346,-0.03,-0.04,0.98,2.84,-1.03,0.67,7.18,-5.33,-28.8,0
458358,-0.02,-0.04,0.98,3.18,-0.92,0.78,7.18,-5.33,-28.8,0
458369,-0.02,-0.04,0.98,3.29,-0.96,0.76,7.25,-5.29,-29.02,0
458381,-0.03,-0.04,0.98,3.33,-0.96,0.66,7.25,-5.29,-29.02,0
458393,-0.03,-0.04,0.98,3.25,-0.88,0.54,7.25,-5.29,-29.02,0
458405,-0.03,-0.04,0.98,3.08,-0.91,0.42,7.25,-5.29,-29.02,0
458415,-0.03,-0.04,0.98,2.9,-0.91,0.27,7.25,-5.29,-29.02,0
458428,-0.03,-0.04,0.98,2.53,-0.73,0.24,7.23,-5.23,-28.99,0
458440,-0.03,-0.04,0.98,2.31,-0.54,0.24,7.23,-5.23,-28.99,0
458450,-0.03,-0.04,0.98,2.15,-0.33,0.23,7.23,-5.23,-28.99,0
458462,-0.03,-0.04,0.98,2.19,-0.18,0.1,7.23,-5.23,-28.99,0
458473,-0.03,-0.04,0.98,2.11,-0.46,0.03,7.29,-5.18,-29.02,0
458486,-0.03,-0.05,0.98,1.56,-0.88,-0.07,7.29,-5.18,-29.02,0
458497,-0.03,-0.04,0.98,1.35,-0.85,0.03,7.29,-5.18,-29.02,0
458508,-0.03,-0.04,0.98,1.4,-0.75,0.25,7.29,-5.18,-29.02,0
458522,-0.02,-0.03,0.98,2.3,-0.96,0.41,7.35,-5.18,-29.13,0
458532,-0.02,-0.04,0.98,2.48,-1.03,0.27,7.35,-5.18,-29.13,0
458543,-0.02,-0.04,0.98,2.5,-0.91,0.2,7.35,-5.18,-29.13,0
458556,-0.02,-0.04,0.98,2.1,-0.8,0.28,7.35,-5.18,-29.13,0
458567,-0.02,-0.04,0.98,2.01,-0.92,0.27,7.44,-5.12,-29.35,0
458579,-0.02,-0.04,0.98,2.16,-1.18,0.31,7.44,-5.12,-29.35,0
458591,-0.03,-0.04,0.98,2.29,-1.29,0.47,7.44,-5.12,-29.35,0
458603,-0.02,-0.04,0.98,2.08,-1.14,0.55,7.44,-5.12,-29.35,0
458617,-0.02,-0.04,0.98,1.55,-1.02,0.3,7.36,-5.12,-29.31,0
458629,-0.02,-0.04,0.98,1.56,-1.04,0.14,7.36,-5.12,-29.31,0
458640,-0.02,-0.04,0.98,1.69,-0.95,0.09,7.36,-5.12,-29.31,0
458651,-0.03,-0.04,0.98,1.51,-0.52,0.18,7.36,-5.12,-29.31,0
458663,-0.03,-0.04,0.98,1.26,-0.07,0.22,7.36,-5.12,-29.31,0
458676,-0.02,-0.04,0.98,1.19,-0.12,0.09,7.27,-5.1,-29.31,0
458688,-0.02,-0.04,0.98,1.48,-0.37,0.11,7.27,-5.1,-29.31,0
458701,-0.02,-0.04,0.98,2.04,-0.73,0.44,7.27,-5.1,-29.31,0
458713,-0.02,-0.04,0.98,2.1,-0.81,0.53,7.27,-5.1,-29.31,0
458725,-0.02,-0.04,0.98,1.92,-0.78,0.41,7.3,-5.1,-29.43,0
458736,-0.02,-0.04,0.98,1.58,-0.67,0.24,7.3,-5.1,-29.43,0
458748,-0.02,-0.04,0.98,1.07,-0.57,0.07,7.3,-5.1,-29.43,0
458760,-0.02,-0.04,0.98,1.03,-1.03,-0.11,7.3,-5.1,-29.43,0
458772,-0.02,-0.04,0.98,1.3,-1.24,-0.06,7.45,-5.11,-29.19,0
458784,-0.02,-0.04,0.98,1.52,-1.41,0.02,7.45,-5.11,-29.19,0
458796,-0.02,-0.04,0.98,1.93,-1.38,0.06,7.45,-5.11,-29.19,0
458808,-0.02,-0.04,0.98,1.97,-1.36,0.09,7.45,-5.11,-29.19,0
458820,-0.02,-0.04,0.98,2.08,-1.41,0.06,7.42,-5.21,-29.51,0
458831,-0.02,-0.04,0.98,2.17,-1.44,0.05,7.42,-5.21,-29.51,0
458842,-0.02,-0.04,0.98,2.25,-1.42,0.08,7.42,-5.21,-29.51,0
458852,-0.02,-0.04,0.98,2.18,-1.39,0.16,7.42,-5.21,-29.51,0
458866,-0.02,-0.04,0.98,2.2,-1.11,0.15,7.35,-5.08,-29.55,0
458878,-0.02,-0.04,0.98,2.22,-1.03,0.16,7.35,-5.08,-29.55,0
458891,-0.02,-0.04,0.98,2.16,-0.87,0.08,7.35,-5.08,-29.55,0
458901,-0.02,-0.04,0.98,2.09,-0.83,0.11,7.35,-5.08,-29.55,0
458912,-0.02,-0.04,0.98,1.92,-0.97,0.07,7.35,-5.08,-29.55,0
458925,-0.02,-0.04,0.98,1.88,-1.24,0.18,7.34,-5.01,-29.55,0
458937,-0.02,-0.04,0.98,1.93,-1.25,0.28,7.34,-5.01,-29.55,0
458951,-0.02,-0.04,0.98,2.02,-0.89,0.32,7.34,-5.01,-29.55,0
458963,-0.02,-0.04,0.98,2.1,-0.68,0.33,7.34,-5.01,-29.55,0
458975,-0.02,-0.04,0.98,2.4,-0.85,0.52,7.29,-5.11,-29.49,0
458986,-0.02,-0.04,0.98,2.45,-1.02,0.55,7.29,-5.11,-29.49,0
458998,-0.02,-0.04,0.98,2.47,-1.02,0.57,7.29,-5.11,-29.49,0
459008,-0.02,-0.04,0.98,2.56,-0.89,0.58,7.29,-5.11,-29.49,0
459021,-0.02,-0.04,0.98,3.07,-1.0,0.69,7.19,-5.07,-29.5,0
459033,-0.02,-0.04,0.98,3.34,-1.13,0.74,7.19,-5.07,-29.5,0
459044,-0.02,-0.04,0.98,3.04,-1.31,0.41,7.19,-5.07,-29.5,0
459055,-0.03,-0.05,0.98,2.61,-1.52,0.07,7.19,-5.07,-29.5,0
459068,-0.03,-0.05,0.98,2.25,-1.78,-0.22,7.22,-4.97,-29.5,0
459080,-0.03,-0.05,0.98,1.73,-2.14,-0.46,7.22,-4.97,-29.5,0
459092,-0.03,-0.05,0.98,1.51,-2.02,-0.48,7.22,-4.97,-29.5,0
459106,-0.03,-0.05,0.98,1.0,-1.31,-0.36,7.22,-4.97,-29.5,0
459117,-0.03,-0.04,0.98,0.9,-0.8,-0.28,7.18,-4.91,-29.5,0
459130,-0.03,-0.04,0.98,1.19,-0.42,0.02,7.18,-4.91,-29.5,0
459141,-0.02,-0.04,0.98,1.4,-0.48,0.17,7.18,-4.91,-29.5,0
459153,-0.02,-0.04,0.98,1.37,-0.6,0.19,7.18,-4.91,-29.5,0
459164,-0.02,-0.04,0.98,0.92,-0.84,0.01,7.18,-4.91,-29.5,0
459176,-0.02,-0.04,0.98,0.91,-0.97,-0.0,7.3,-4.86,-29.34,0
459188,-0.02,-0.04,0.98,1.04,-1.09,-0.03,7.3,-4.86,-29.34,0
459200,-0.02,-0.04,0.98,1.8,-1.26,0.18,7.3,-4.86,-29.34,0
459212,-0.02,-0.04,0.98,1.93,-1.32,0.28,7.3,-4.86,-29.34,0
459224,-0.02,-0.04,0.98,1.61,-0.95,0.25,7.28,-4.98,-29.53,0
459235,-0.03,-0.05,0.98,1.53,-0.6,0.3,7.28,-4.98,-29.53,0
459247,-0.03,-0.04,0.98,1.65,-0.39,0.46,7.28,-4.98,-29.53,0
459258,-0.03,-0.04,0.98,2.16,-0.04,0.81,7.28,-4.98,-29.53,0
459270,-0.02,-0.04,0.98,2.24,0.31,0.89,7.31,-4.87,-29.39,0
459282,-0.02,-0.04,0.98,2.27,0.6,0.91,7.31,-4.87,-29.39,0
459294,-0.02,-0.04,0.98,2.48,0.63,0.8,7.31,-4.87,-29.39,0
459306,-0.02,-0.04,0.98,2.74,0.4,0.8,7.31,-4.87,-29.39,0
459317,-0.02,-0.04,0.98,2.88,0.03,0.77,7.37,-4.85,-29.36,0
459329,-0.02,-0.04,0.98,2.89,-0.5,0.65,7.37,-4.85,-29.36,0
459341,-0.02,-0.04,0.98,2.62,-0.73,0.4,7.37,-4.85,-29.36,0
459351,-0.02,-0.04,0.98,2.24,-1.19,0.17,7.37,-4.85,-29.36,0
459363,-0.02,-0.05,0.98,2.36,-1.65,-0.03,7.37,-4.85,-29.36,0
459374,-0.02,-0.05,0.98,2.27,-1.57,0.08,7.31,-4.81,-29.23,0
459386,-0.02,-0.05,0.98,2.05,-1.49,0.06,7.31,-4.81,-29.23,0
459398,-0.02,-0.05,0.98,2.11,-1.44,0.11,7.31,-4.81,-29.23,0
459409,-0.02,-0.05,0.98,2.13,-1.38,0.18,7.31,-4.81,-29.23,0
459422,-0.02,-0.05,0.98,2.09,-1.13,0.36,7.31,-4.82,-29.24,0
459433,-0.02,-0.04,0.98,2.19,-0.87,0.42,7.31,-4.82,-29.24,0
459444,-0.02,-0.04,0.98,2.39,-0.7,0.49,7.31,-4.82,-29.24,0
459456,-0.02,-0.04,0.98,2.44,-1.0,0.54,7.31,-4.82,-29.24,0
459468,-0.02,-0.04,0.98,2.43,-1.22,0.44,7.3,-4.87,-29.33,0
459480,-0.02,-0.04,0.98,2.44,-1.31,0.3,7.3,-4.87,-29.33,0
459492,-0.02,-0.04,0.98,2.36,-1.73,0.14,7.3,-4.87,-29.33,0
459503,-0.02,-0.05,0.98,2.54,-1.89,0.2,7.3,-4.87,-29.33,0
459514,-0.03,-0.05,0.98,2.69,-1.73,0.37,7.3,-4.87,-29.33,0
459527,-0.03,-0.05,0.98,2.54,-1.07,0.73,7.29,-4.89,-29.33,0
459538,-0.03,-0.05,0.98,2.44,-0.77,0.87,7.29,-4.89,-29.33,0
459552,-0.02,-0.04,0.98,2.33,-0.46,0.86,7.29,-4.89,-29.33,0
459564,-0.02,-0.04,0.98,2.42,-0.56,0.68,7.29,-4.89,-29.33,0
459576,-0.02,-0.04,0.98,2.64,-1.16,0.3,7.31,-4.91,-29.25,0
459587,-0.02,-0.05,0.98,2.38,-1.35,0.09,7.31,-4.91,-29.25,0
459599,-0.02,-0.05,0.98,2.07,-1.43,-0.12,7.31,-4.91,-29.25,0
459610,-0.03,-0.05,0.98,1.66,-1.18,-0.29,7.31,-4.91,-29.25,0
459622,-0.03,-0.05,0.98,1.52,-1.08,-0.17,7.25,-4.99,-29.22,0
459634,-0.02,-0.05,0.98,1.47,-1.0,-0.02,7.25,-4.99,-29.22,0
459646,-0.02,-0.05,0.98,1.63,-0.73,0.12,7.25,-4.99,-29.22,0
459658,-0.02,-0.05,0.98,1.67,-0.75,0.16,7.25,-4.99,-29.22,0
459670,-0.02,-0.04,0.98,2.01,-0.75,0.3,7.33,-5.02,-29.33,0
459681,-0.02,-0.05,0.98,2.06,-0.83,0.24,7.33,-5.02,-29.33,0
459692,-0.02,-0.05,0.98,1.89,-0.98,0.04,7.33,-5.02,-29.33,0
459703,-0.02,-0.05,0.98,1.7,-1.05,-0.15,7.33,-5.02,-29.33,0
459717,-0.02,-0.05,0.98,1.41,-1.14,-0.3,7.34,-4.88,-29.29,0
459728,-0.02,-0.05,0.98,1.26,-1.15,-0.27,7.34,-4.88,-29.29,0
459741,-0.02,-0.05,0.98,1.15,-0.86,-0.23,7.34,-4.88,-29.29,0
459752,-0.02,-0.04,0.98,1.19,-0.69,-0.3,7.34,-4.88,-29.29,0
459763,-0.02,-0.05,0.98,1.27,-0.68,-0.38,7.34,-4.88,-29.29,0
459776,-0.02,-0.05,0.98,1.56,-0.96,-0.29,7.34,-4.75,-29.33,0
459788,-0.02,-0.05,0.98,1.51,-1.03,-0.25,7.34,-4.75,-29.33,0
459801,-0.02,-0.04,0.98,1.29,-1.2,-0.44,7.34,-4.75,-29.33,0
459812,-0.02,-0.04,0.98,1.04,-1.39,-0.64,7.34,-4.75,-29.33,0
459823,-0.02,-0.04,0.98,0.83,-1.57,-0.86,7.24,-4.77,-29.11,0
459835,-0.02,-0.05,0.98,0.51,-1.65,-0.91,7.24,-4.77,-29.11,0
459847,-0.02,-0.05,0.98,0.35,-1.75,-0.81,7.24,-4.77,-29.11,0
459861,-0.02,-0.04,0.98,0.2,-1.54,-0.66,7.24,-4.77,-29.11,0
459872,-0.02,-0.04,0.98,0.4,-1.24,-0.52,7.28,-4.76,-29.03,0
459884,-0.02,-0.04,0.98,0.85,-1.17,-0.32,7.28,-4.76,-29.03,0
459896,-0.02,-0.04,0.98,1.9,-0.92,0.19,7.28,-4.76,-29.03,0
459908,-0.02,-0.04,0.98,2.12,-0.67,0.33,7.28,-4.76,-29.03,0
459920,-0.02,-0.04,0.98,1.98,-0.37,0.35,7.21,-4.73,-29.06,0
459931,-0.02,-0.04,0.98,1.86,-0.26,0.28,7.21,-4.73,-29.06,0
459943,-0.02,-0.04,0.98,1.81,-0.27,0.17,7.21,-4.73,-29.06,0
459954,-0.02,-0.04,0.98,2.0,-0.83,0.25,7.21,-4.73,-29.06,0
459966,-0.02,-0.04,0.98,1.98,-1.04,0.26,7.35,-4.8,-29.18,0
459978,-0.02,-0.04,0.98,1.78,-1.11,0.16,7.35,-4.8,-29.18,0
459990,-0.02,-0.04,0.98,1.57,-0.96,0.13,7.35,-4.8,-29.18,0
460002,-0.02,-0.04,0.98,1.67,-0.86,0.24,7.35,-4.8,-29.18,0
460016,-0.02,-0.04,0.98,1.93,-0.78,0.28,7.38,-4.74,-29.22,0
460027,-0.02,-0.04,0.98,2.01,-0.84,0.3,7.38,-4.74,-29.22,0
460038,-0.02,-0.04,0.98,2.01,-0.88,0.28,7.38,-4.74,-29.22,0
460051,-0.02,-0.04,0.98,1.87,-1.01,0.19,7.38,-4.74,-29.22,0
460062,-0.02,-0.04,0.98,1.91,-1.07,0.22,7.38,-4.74,-29.22,0
460075,-0.02,-0.04,0.98,2.11,-1.32,0.14,7.4,-4.8,-29.28,0
460087,-0.02,-0.04,0.98,2.15,-1.53,0.02,7.4,-4.8,-29.28,0
460100,-0.02,-0.04,0.98,2.21,-1.85,-0.05,7.4,-4.8,-29.28,0
460111,-0.02,-0.05,0.98,2.16,-1.74,-0.05,7.4,-4.8,-29.28,0
460122,-0.02,-0.05,0.98,2.14,-1.46,0.01,7.39,-4.86,-29.13,0
460136,-0.02,-0.04,0.98,2.15,-0.94,0.13,7.39,-4.86,-29.13,0
460148,-0.02,-0.04,0.98,2.28,-0.76,0.12,7.39,-4.86,-29.13,0
460161,-0.02,-0.04,0.98,2.44,-0.88,-0.02,7.39,-4.86,-29.13,0
460173,-0.02,-0.05,0.98,2.46,-1.13,-0.11,7.29,-4.85,-29.32,0
460186,-0.02,-0.05,0.98,1.9,-1.66,-0.28,7.29,-4.85,-29.32,0
460197,-0.02,-0.05,0.98,1.47,-1.78,-0.33,7.29,-4.85,-29.32,0
460209,-0.02,-0.05,0.98,1.02,-1.71,-0.34,7.29,-4.85,-29.32,0
460222,-0.02,-0.04,0.98,0.84,-1.35,-0.12,7.27,-4.78,-29.41,0
460233,-0.02,-0.04,0.98,1.14,-1.15,-0.02,7.27,-4.78,-29.41,0
460244,-0.02,-0.04,0.98,1.57,-1.03,0.05,7.27,-4.78,-29.41,0
460257,-0.02,-0.04,0.98,2.46,-1.08,0.22,7.27,-4.78,-29.41,0
460268,-0.02,-0.05,0.98,2.61,-1.15,0.23,7.36,-4.71,-29.39,0
460282,-0.02,-0.05,0.98,2.42,-1.39,0.09,7.36,-4.71,-29.39,0
460293,-0.02,-0.05,0.98,2.32,-1.59,0.03,7.36,-4.71,-29.39,0
460304,-0.02,-0.05,0.98,2.17,-1.74,-0.05,7.36,-4.71,-29.39,0
460316,-0.02,-0.05,0.98,1.85,-1.54,-0.12,7.48,-4.71,-29.33,0
460328,-0.02,-0.05,0.98,1.58,-1.31,-0.09,7.48,-4.71,-29.33,0
460341,-0.02,-0.05,0.98,1.09,-0.34,-0.03,7.48,-4.71,-29.33,0
460352,-0.02,-0.05,0.98,1.06,0.1,0.01,7.48,-4.71,-29.33,0
460365,-0.02,-0.04,0.98,1.13,0.22,-0.02,7.53,-4.77,-29.21,0
460376,-0.02,-0.04,0.98,1.35,0.05,-0.11,7.53,-4.77,-29.21,0
460388,-0.02,-0.05,0.98,1.52,-0.31,-0.3,7.53,-4.77,-29.21,0
460402,-0.02,-0.05,0.98,1.57,-0.97,-0.39,7.53,-4.77,-29.21,0
460415,-0.02,-0.05,0.98,1.67,-1.18,-0.35,7.5,-4.75,-29.05,0
460426,-0.02,-0.05,0.98,1.76,-1.25,-0.24,7.5,-4.75,-29.05,0
460437,-0.02,-0.04,0.98,1.72,-1.23,-0.24,7.5,-4.75,-29.05,0
460448,-0.02,-0.05,0.98,1.76,-1.34,-0.17,7.5,-4.75,-29.05,0
460460,-0.02,-0.04,0.98,1.63,-1.35,-0.07,7.5,-4.75,-29.05,0
460473,-0.03,-0.04,0.98,1.58,-1.18,0.01,7.46,-4.85,-29.26,0
460485,-0.02,-0.04,0.98,1.55,-0.9,0.05,7.46,-4.85,-29.26,0
460497,-0.02,-0.04,0.98,1.49,-0.57,0.09,7.46,-4.85,-29.26,0
460509,-0.02,-0.04,0.98,1.5,-0.52,0.1,7.46,-4.85,-29.26,0
460521,-0.02,-0.04,0.98,1.59,-0.52,0.12,7.35,-4.94,-29.03,0
460532,-0.02,-0.04,0.98,1.72,-0.73,0.11,7.35,-4.94,-29.03,0
460544,-0.02,-0.04,0.98,1.84,-0.97,0.15,7.35,-4.94,-29.03,0
460555,-0.02,-0.04,0.98,1.82,-1.1,0.18,7.35,-4.94,-29.03,0
460567,-0.02,-0.04,0.98,1.66,-0.94,0.16,7.36,-4.86,-29.04,0
460579,-0.02,-0.04,0.98,1.61,-0.82,0.14,7.36,-4.86,-29.04,0
460591,-0.02,-0.04,0.98,1.83,-0.62,0.19,7.36,-4.86,-29.04,0
460603,-0.02,-0.04,0.98,1.94,-0.56,0.31,7.36,-4.86,-29.04,0
460614,-0.02,-0.04,0.98,1.97,-0.55,0.4,7.34,-4.87,-29.08,0
460626,-0.02,-0.04,0.98,1.99,-0.65,0.51,7.34,-4.87,-29.08,0
460638,-0.02,-0.04,0.98,1.9,-0.68,0.44,7.34,-4.87,-29.08,0
460651,-0.02,-0.04,0.98,2.04,-0.68,0.29,7.34,-4.87,-29.08,0
460662,-0.02,-0.04,0.98,2.13,-0.78,0.24,7.34,-4.87,-29.08,0
460673,-0.02,-0.04,0.98,2.14,-0.97,0.21,7.35,-4.91,-29.16,0
460684,-0.02,-0.04,0.98,1.78,-1.09,0.04,7.35,-4.91,-29.16,0
460695,-0.02,-0.05,0.98,1.56,-1.01,-0.07,7.35,-4.91,-29.16,0
460707,-0.02,-0.05,0.98,1.46,-0.91,0.02,7.35,-4.91,-29.16,0
460720,-0.02,-0.04,0.98,1.67,-0.76,0.12,7.24,-4.96,-29.29,0
460732,-0.02,-0.04,0.98,1.81,-0.89,0.07,7.24,-4.96,-29.29,0
460745,-0.02,-0.04,0.98,2.15,-1.29,-0.22,7.24,-4.96,-29.29,0
460756,-0.02,-0.04,0.98,2.19,-1.5,-0.32,7.24,-4.96,-29.29,0
460767,-0.02,-0.05,0.98,2.12,-1.81,-0.31,7.24,-4.96,-29.25,0
460778,-0.02,-0.05,0.98,2.0,-2.22,-0.21,7.24,-4.96,-29.25,0
460790,-0.02,-0.04,0.98,1.83,-2.15,-0.15,7.24,-4.96,-29.25,0
460802,-0.02,-0.04,0.98,1.77,-2.02,-0.12,7.24,-4.96,-29.25,0
460814,-0.02,-0.04,0.98,2.18,-1.8,0.08,7.35,-4.91,-29.45,0
460826,-0.02,-0.04,0.98,2.37,-1.58,0.18,7.35,-4.91,-29.45,0
460838,-0.02,-0.05,0.98,2.41,-1.01,0.33,7.35,-4.91,-29.45,0
460850,-0.02,-0.05,0.98,2.35,-0.86,0.38,7.35,-4.91,-29.45,0
460862,-0.02,-0.05,0.98,2.18,-0.86,0.37,7.35,-4.91,-29.45,0
460875,-0.02,-0.04,0.98,1.9,-1.15,0.32,7.3,-4.91,-29.44,0
460886,-0.02,-0.04,0.98,1.9,-1.16,0.3,7.3,-4.91,-29.44,0
460897,-0.02,-0.04,0.98,1.87,-1.04,0.29,7.3,-4.91,-29.44,0
460909,-0.02,-0.04,0.98,1.85,-1.02,0.23,7.3,-4.91,-29.44,0
460920,-0.02,-0.04,0.98,2.09,-1.21,0.29,7.26,-4.85,-29.48,0
460932,-0.02,-0.04,0.98,2.19,-1.39,0.32,7.26,-4.85,-29.48,0
460944,-0.03,-0.04,0.98,2.02,-1.33,0.22,7.26,-4.85,-29.48,0
460956,-0.02,-0.05,0.98,2.13,-1.28,0.26,7.26,-4.85,-29.48,0
460969,-0.02,-0.05,0.98,2.03,-1.09,0.31,7.22,-4.83,-29.44,0
460980,-0.02,-0.05,0.98,1.82,-0.8,0.28,7.22,-4.83,-29.44,0
460991,-0.02,-0.05,0.98,1.69,-0.54,0.26,7.22,-4.83,-29.44,0
461002,-0.02,-0.05,0.98,1.66,-0.52,0.38,7.22,-4.83,-29.44,0
461014,-0.02,-0.04,0.98,1.78,-0.62,0.4,7.12,-4.71,-29.42,0
461026,-0.02,-0.04,0.98,1.96,-0.7,0.42,7.12,-4.71,-29.42,0
461038,-0.02,-0.04,0.98,2.17,-0.96,0.31,7.12,-4.71,-29.42,0
461050,-0.02,-0.04,0.98,2.31,-1.11,0.25,7.12,-4.71,-29.42,0
461064,-0.02,-0.05,0.98,2.54,-1.47,0.2,7.08,-4.77,-29.57,0
461076,-0.02,-0.05,0.98,2.38,-1.57,0.09,7.08,-4.77,-29.57,0
461087,-0.02,-0.04,0.98,2.0,-1.45,-0.15,7.08,-4.77,-29.57,0
461099,-0.02,-0.05,0.98,1.87,-1.48,-0.16,7.08,-4.77,-29.57,0
461111,-0.02,-0.05,0.98,1.77,-1.51,-0.08,7.08,-4.77,-29.57,0
461124,-0.02,-0.05,0.98,1.77,-1.11,0.03,7.05,-4.77,-29.65,0
461136,-0.02,-0.05,0.98,1.86,-0.97,0.04,7.05,-4.77,-29.65,0
461146,-0.02,-0.05,0.98,1.91,-0.99,0.06,7.05,-4.77,-29.65,0
461158,-0.02,-0.05,0.98,1.84,-1.08,-0.04,7.05,-4.77,-29.65,0
461169,-0.02,-0.05,0.98,1.92,-1.31,-0.07,7.01,-4.85,-29.61,0
461182,-0.02,-0.05,0.98,2.11,-1.62,-0.03,7.01,-4.85,-29.61,0
461193,-0.02,-0.05,0.98,2.07,-1.53,-0.02,7.01,-4.85,-29.61,0
461205,-0.03,-0.05,0.98,1.86,-1.31,-0.02,7.01,-4.85,-29.61,0
461218,-0.03,-0.05,0.98,1.45,-0.78,-0.04,7.05,-4.87,-29.53,0
461229,-0.03,-0.05,0.98,1.41,-0.66,-0.01,7.05,-4.87,-29.53,0
461241,-0.02,-0.05,0.98,1.53,-0.65,0.02,7.05,-4.87,-29.53,0
461253,-0.02,-0.05,0.98,2.32,-1.14,0.2,7.05,-4.87,-29.53,0
461264,-0.02,-0.05,0.98,2.55,-1.3,0.22,7.03,-4.79,-29.67,0
461278,-0.02,-0.05,0.98,2.73,-1.65,0.28,7.03,-4.79,-29.67,0
461289,-0.03,-0.05,0.98,2.54,-1.57,0.38,7.03,-4.79,-29.67,0
461302,-0.02,-0.04,0.98,2.38,-0.89,0.38,7.03,-4.79,-29.67,0
461314,-0.02,-0.04,0.98,2.62,-0.76,0.3,6.95,-4.77,-29.67,0
461326,-0.02,-0.04,0.98,2.91,-0.73,0.23,6.95,-4.77,-29.67,0
461338,-0.02,-0.05,0.98,3.09,-1.21,0.07,6.95,-4.77,-29.67,0
461350,-0.02,-0.05,0.98,3.16,-1.61,0.01,6.95,-4.77,-29.67,0
461365,-0.02,-0.05,0.98,3.33,-2.31,0.05,7.05,-4.76,-29.5,0
461376,-0.02,-0.05,0.98,3.35,-2.46,0.08,7.05,-4.76,-29.5,0
461390,-0.03,-0.05,0.98,3.26,-2.1,-0.01,7.05,-4.76,-29.5,0
461402,-0.03,-0.05,0.98,3.1,-1.78,0.03,7.05,-4.76,-29.5,0
461413,-0.03,-0.05,0.98,2.84,-1.46,0.13,7.03,-4.73,-29.52,0
461424,-0.03,-0.05,0.98,2.59,-1.18,0.13,7.03,-4.73,-29.52,0
461436,-0.03,-0.05,0.98,2.39,-1.02,0.07,7.03,-4.73,-29.52,0
461448,-0.03,-0.05,0.98,2.3,-1.08,0.02,7.03,-4.73,-29.52,0
461459,-0.03,-0.05,0.98,2.27,-1.03,-0.02,7.03,-4.73,-29.52,0
461471,-0.02,-0.05,0.98,2.29,-1.07,-0.01,7.15,-4.76,-29.51,0
461484,-0.02,-0.05,0.98,1.97,-1.43,-0.01,7.15,-4.76,-29.51,0
461495,-0.03,-0.05,0.98,1.83,-1.45,-0.06,7.15,-4.76,-29.51,0
461506,-0.03,-0.05,0.98,1.8,-1.32,-0.06,7.15,-4.76,-29.51,0
461520,-0.03,-0.05,0.98,1.77,-1.17,-0.04,7.11,-4.7,-29.54,0
461530,-0.03,-0.05,0.98,1.71,-1.04,-0.1,7.11,-4.7,-29.54,0
461543,-0.03,-0.05,0.98,1.87,-1.02,-0.15,7.11,-4.7,-29.54,0
461554,-0.03,-0.05,0.98,1.92,-1.26,-0.1,7.11,-4.7,-29.54,0
461565,-0.03,-0.05,0.98,1.84,-1.25,-0.07,7.09,-4.62,-29.56,0
461579,-0.03,-0.05,0.98,1.74,-0.94,0.01,7.09,-4.62,-29.56,0
461591,-0.03,-0.05,0.98,1.76,-0.89,0.02,7.09,-4.62,-29.56,0
461604,-0.02,-0.05,0.98,1.92,-1.07,0.05,7.09,-4.62,-29.56,0
461615,-0.02,-0.05,0.98,1.8,-1.12,-0.0,7.06,-4.62,-29.49,0
461626,-0.02,-0.05,0.98,1.66,-1.1,-0.06,7.06,-4.62,-29.49,0
461637,-0.02,-0.05,0.98,1.47,-0.87,0.02,7.06,-4.62,-29.49,0
461648,-0.02,-0.05,0.98,1.59,-0.87,0.06,7.06,-4.62,-29.49,0
461660,-0.02,-0.05,0.98,1.91,-0.87,0.09,7.06,-4.62,-29.49,0
461673,-0.03,-0.05,0.98,2.44,-1.32,0.3,6.96,-4.42,-29.43,0
461685,-0.03,-0.05,0.98,2.29,-1.49,0.29,6.96,-4.42,-29.43,0
461697,-0.03,-0.05,0.98,2.08,-1.16,0.25,6.96,-4.42,-29.43,0
461708,-0.03,-0.05,0.98,2.01,-1.04,0.24,6.96,-4.42,-29.43,0
461720,-0.03,-0.05,0.98,2.01,-1.0,0.22,6.99,-4.45,-29.52,0
461730,-0.03,-0.05,0.98,2.01,-0.89,0.19,6.99,-4.45,-29.52,0
461742,-0.02,-0.05,0.98,1.65,-0.72,0.01,6.99,-4.45,-29.52,0
461754,-0.02,-0.05,0.98,1.52,-0.87,-0.07,6.99,-4.45,-29.52,0
461766,-0.03,-0.05,0.98,1.89,-1.46,-0.07,7.03,-4.43,-29.61,0
461777,-0.03,-0.05,0.98,2.08,-1.66,-0.07,7.03,-4.43,-29.61,0
461789,-0.03,-0.05,0.98,2.17,-1.72,-0.12,7.03,-4.43,-29.61,0
461800,-0.03,-0.05,0.98,2.17,-1.67,-0.12,7.03,-4.43,-29.61,0
461812,-0.03,-0.05,0.98,2.01,-1.76,-0.15,6.99,-4.41,-29.8,0
461824,-0.03,-0.05,0.98,1.84,-1.86,-0.16,6.99,-4.41,-29.8,0
461837,-0.03,-0.05,0.98,1.59,-1.55,-0.2,6.99,-4.41,-29.8,0
461847,-0.03,-0.06,0.98,1.67,-1.51,-0.13,6.99,-4.41,-29.8,0
461858,-0.03,-0.05,0.98,1.8,-1.5,-0.06,6.99,-4.41,-29.8,0
461872,-0.03,-0.05,0.98,2.06,-1.05,0.12,7.04,-4.52,-29.78,0
461883,-0.03,-0.05,0.98,1.92,-0.76,0.1,7.04,-4.52,-29.78,0
461894,-0.03,-0.05,0.98,1.77,-0.73,0.03,7.04,-4.52,-29.78,0
461906,-0.03,-0.05,0.98,1.73,-0.96,0.05,7.04,-4.52,-29.78,0
461917,-0.03,-0.05,0.98,1.66,-1.16,0.04,7.18,-4.6,-29.85,0
461931,-0.03,-0.05,0.98,2.07,-1.01,0.28,7.18,-4.6,-29.85,0
461941,-0.02,-0.05,0.98,2.68,-0.92,0.76,7.18,-4.6,-29.85,0
461952,-0.03,-0.05,0.98,2.99,-1.04,0.82,7.18,-4.6,-29.85,0
461966,-0.03,-0.05,0.98,2.93,-0.59,0.76,7.19,-4.62,-29.67,0
461976,-0.03,-0.05,0.98,2.84,-0.38,0.72,7.19,-4.62,-29.67,0
461987,-0.02,-0.05,0.98,2.98,-0.39,0.79,7.19,-4.62,-29.67,0
461999,-0.03,-0.05,0.98,3.5,-1.16,0.84,7.19,-4.62,-29.67,0
462010,-0.03,-0.06,0.98,3.36,-1.19,0.83,7.19,-4.62,-29.67,0
462021,-0.02,-0.06,0.98,3.01,-1.05,0.74,7.19,-4.69,-29.67,0
462032,-0.02,-0.05,0.98,2.15,-0.82,0.34,7.19,-4.69,-29.67,0
462043,-0.03,-0.05,0.98,2.03,-0.82,0.26,7.19,-4.69,-29.67,0
462055,-0.03,-0.06,0.98,2.08,-0.88,0.25,7.19,-4.69,-29.67,0
462068,-0.03,-0.06,0.98,2.04,-0.8,0.27,7.14,-4.67,-29.65,0
462079,-0.03,-0.06,0.98,1.88,-0.72,0.24,7.14,-4.67,-29.65,0
462090,-0.03,-0.05,0.98,1.73,-0.78,0.16,7.14,-4.67,-29.65,0
462101,-0.03,-0.05,0.98,1.83,-1.04,0.06,7.14,-4.67,-29.65,0
462113,-0.03,-0.05,0.98,1.98,-1.14,0.1,7.14,-4.52,-29.83,0
462125,-0.03,-0.05,0.98,2.05,-1.13,0.15,7.14,-4.52,-29.83,0
462137,-0.03,-0.05,0.98,2.05,-0.9,0.19,7.14,-4.52,-29.83,0
462149,-0.02,-0.05,0.98,2.12,-0.91,0.23,7.14,-4.52,-29.83,0
462163,-0.03,-0.05,0.98,2.12,-1.45,0.18,7.16,-4.43,-29.71,0
462174,-0.03,-0.05,0.98,2.19,-1.67,0.21,7.16,-4.43,-29.71,0
462184,-0.03,-0.05,0.98,2.26,-1.77,0.23,7.16,-4.43,-29.71,0
462197,-0.03,-0.05,0.98,2.69,-1.92,0.38,7.16,-4.43,-29.71,0
462208,-0.03,-0.06,0.98,2.83,-1.97,0.23,7.16,-4.43,-29.71,0
462219,-0.03,-0.06,0.98,2.76,-1.87,0.14,7.22,-4.35,-29.81,0
462231,-0.03,-0.06,0.98,2.27,-1.54,0.04,7.22,-4.35,-29.81,0
462243,-0.03,-0.06,0.98,1.96,-1.39,-0.07,7.22,-4.35,-29.81,0
462256,-0.03,-0.06,0.98,1.86,-1.33,-0.1,7.22,-4.35,-29.81,0
462268,-0.03,-0.06,0.98,1.92,-1.4,-0.06,7.26,-4.25,-29.8,0
462280,-0.03,-0.06,0.98,2.08,-1.43,0.0,7.26,-4.25,-29.8,0
462292,-0.03,-0.06,0.98,2.04,-1.14,0.14,7.26,-4.25,-29.8,0
462304,-0.03,-0.06,0.98,2.06,-0.97,0.16,7.26,-4.25,-29.8,0
462317,-0.03,-0.06,0.98,2.06,-0.74,0.33,7.31,-4.12,-29.98,0
462329,-0.03,-0.06,0.98,1.97,-0.82,0.29,7.31,-4.12,-29.98,0
462339,-0.03,-0.06,0.98,1.84,-0.85,0.2,7.31,-4.12,-29.98,0
462350,-0.03,-0.06,0.98,1.42,-0.73,0.1,7.31,-4.12,-29.98,0
462362,-0.03,-0.06,0.98,1.39,-0.65,0.02,7.38,-4.12,-30.06,0
462374,-0.03,-0.06,0.98,1.52,-0.67,-0.02,7.38,-4.12,-30.06,0
462386,-0.03,-0.06,0.98,1.67,-0.85,-0.1,7.38,-4.12,-30.06,0
462398,-0.03,-0.06,0.98,1.64,-1.13,-0.12,7.38,-4.12,-30.06,0
462412,-0.03,-0.06,0.98,1.51,-1.54,-0.19,7.35,-4.15,-29.99,0
462424,-0.03,-0.06,0.98,1.53,-1.63,-0.13,7.35,-4.15,-29.99,0
462436,-0.03,-0.06,0.98,1.72,-1.37,0.04,7.35,-4.15,-29.99,0
462447,-0.03,-0.05,0.98,1.76,-1.15,0.07,7.35,-4.15,-29.99,0
462459,-0.03,-0.05,0.98,1.71,-0.94,0.06,7.35,-4.15,-29.99,0
462472,-0.03,-0.06,0.98,1.97,-0.95,0.13,7.38,-4.15,-29.88,0
462484,-0.03,-0.06,0.98,2.06,-1.05,0.28,7.38,-4.15,-29.88,0
462497,-0.03,-0.06,0.98,1.95,-0.82,0.41,7.38,-4.15,-29.88,0
462509,-0.03,-0.06,0.98,1.93,-0.63,0.48,7.38,-4.15,-29.88,0
462520,-0.03,-0.06,0.98,1.89,-0.57,0.54,7.4,-4.12,-29.84,0
462532,-0.03,-0.06,0.98,2.0,-0.58,0.53,7.4,-4.12,-29.84,0
462544,-0.03,-0.06,0.98,2.09,-0.57,0.49,7.4,-4.12,-29.84,0
462558,-0.03,-0.06,0.98,1.82,-0.7,0.26,7.4,-4.12,-29.84,0
462569,-0.03,-0.06,0.98,1.77,-0.87,0.14,7.29,-4.12,-29.81,0
462580,-0.03,-0.06,0.98,1.77,-1.03,0.13,7.29,-4.12,-29.81,0
462592,-0.03,-0.06,0.98,1.73,-1.19,0.07,7.29,-4.12,-29.81,0
462603,-0.03,-0.06,0.98,1.85,-1.1,0.1,7.29,-4.12,-29.81,0
462614,-0.03,-0.06,0.98,1.83,-1.09,0.07,7.38,-4.25,-29.9,0
462626,-0.03,-0.06,0.98,1.86,-1.12,0.05,7.38,-4.25,-29.9,0
462638,-0.03,-0.06,0.98,1.88,-1.05,0.13,7.38,-4.25,-29.9,0
462650,-0.03,-0.06,0.98,1.62,-1.11,0.02,7.38,-4.25,-29.9,0
462662,-0.03,-0.05,0.98,1.68,-1.15,-0.08,7.35,-4.29,-29.72,0
462673,-0.03,-0.06,0.98,1.81,-1.21,-0.09,7.35,-4.29,-29.72,0
462686,-0.03,-0.06,0.98,1.87,-1.36,-0.09,7.35,-4.29,-29.72,0
462697,-0.03,-0.06,0.98,1.83,-1.37,-0.17,7.35,-4.29,-29.72,0
462709,-0.03,-0.06,0.98,1.79,-1.3,-0.26,7.35,-4.29,-29.72,0
462722,-0.03,-0.06,0.98,1.84,-1.48,-0.16,7.31,-4.24,-29.52,0
462734,-0.03,-0.06,0.98,1.77,-1.37,-0.07,7.31,-4.24,-29.52,0
462745,-0.03,-0.06,0.98,1.49,-0.73,0.11,7.31,-4.24,-29.52,0
462756,-0.03,-0.05,0.98,1.51,-0.63,0.09,7.31,-4.24,-29.52,0
462767,-0.03,-0.05,0.98,1.65,-0.67,0.07,7.28,-4.22,-29.6,0
462781,-0.03,-0.06,0.98,1.73,-1.11,-0.16,7.28,-4.22,-29.6,0
462793,-0.03,-0.06,0.98,1.75,-1.38,-0.16,7.28,-4.22,-29.6,0
462806,-0.03,-0.06,0.98,1.7,-1.69,-0.12,7.28,-4.22,-29.6,0
462818,-0.03,-0.06,0.98,1.68,-1.71,-0.1,7.19,-4.18,-29.65,0
462829,-0.03,-0.06,0.98,1.71,-1.57,-0.03,7.19,-4.18,-29.65,0
462842,-0.03,-0.06,0.98,1.85,-1.11,0.09,7.19,-4.18,-29.65,0
462852,-0.03,-0.06,0.98,1.92,-1.08,0.16,7.19,-4.18,-29.65,0
462863,-0.03,-0.06,0.98,1.86,-0.98,0.26,7.16,-4.23,-29.55,0
462875,-0.03,-0.06,0.98,1.78,-0.31,0.39,7.16,-4.23,-29.55,0
462887,-0.03,-0.05,0.98,1.81,-0.17,0.35,7.16,-4.23,-29.55,0
462900,-0.02,-0.05,0.98,2.09,-0.62,0.27,7.16,-4.23,-29.55,0
462912,-0.02,-0.06,0.98,2.05,-0.85,0.14,7.14,-4.13,-29.29,0
462922,-0.02,-0.06,0.98,1.93,-1.04,0.02,7.14,-4.13,-29.29,0
462935,-0.03,-0.06,0.98,1.63,-1.47,-0.23,7.14,-4.13,-29.29,0
462947,-0.03,-0.06,0.98,1.49,-1.58,-0.25,7.14,-4.13,-29.29,0
462962,-0.03,-0.06,0.98,1.34,-1.37,-0.16,7.04,-4.07,-29.22,0
462974,-0.03,-0.06,0.98,1.4,-1.19,-0.06,7.04,-4.07,-29.22,0
462985,-0.03,-0.06,0.98,1.66,-0.8,0.14,7.04,-4.07,-29.22,0
462997,-0.03,-0.06,0.98,1.88,-0.69,0.19,7.04,-4.07,-29.22,0
463007,-0.03,-0.06,0.98,1.97,-0.67,0.16,7.04,-4.07,-29.22,0
463018,-0.03,-0.06,0.98,2.1,-0.7,0.15,7.07,-4.06,-29.25,0
463030,-0.02,-0.06,0.98,1.95,-0.97,-0.09,7.07,-4.06,-29.25,0
463042,-0.02,-0.06,0.98,1.77,-1.1,-0.24,7.07,-4.06,-29.25,0
463056,-0.03,-0.06,0.98,1.57,-1.57,-0.26,7.07,-4.06,-29.25,0
463067,-0.03,-0.06,0.98,1.46,-1.64,-0.25,7.15,-4.04,-29.18,0
463080,-0.03,-0.06,0.98,1.41,-1.26,-0.23,7.15,-4.04,-29.18,0
463091,-0.03,-0.06,0.98,1.51,-1.16,-0.11,7.15,-4.04,-29.18,0
463103,-0.03,-0.06,0.98,1.62,-1.05,-0.01,7.15,-4.04,-29.18,0
463116,-0.03,-0.06,0.98,1.75,-0.65,0.18,7.24,-4.05,-29.31,0
463128,-0.03,-0.06,0.98,1.86,-0.55,0.29,7.24,-4.05,-29.31,0
463141,-0.02,-0.06,0.98,2.0,-0.57,0.48,7.24,-4.05,-29.31,0
463152,-0.02,-0.05,0.98,1.91,-0.56,0.44,7.24,-4.05,-29.31,0
463163,-0.02,-0.05,0.98,1.76,-0.55,0.31,7.32,-4.11,-29.2,0
463176,-0.02,-0.06,0.98,1.76,-0.8,0.11,7.32,-4.11,-29.2,0
463187,-0.03,-0.06,0.98,1.76,-0.92,0.13,7.32,-4.11,-29.2,0
463198,-0.03,-0.06,0.98,1.68,-0.95,0.17,7.32,-4.11,-29.2,0
463211,-0.03,-0.06,0.98,1.38,-0.56,0.2,7.33,-4.11,-29.3,0
463222,-0.03,-0.06,0.98,1.24,-0.47,0.24,7.33,-4.11,-29.3,0
463232,-0.03,-0.06,0.98,1.17,-0.43,0.28,7.33,-4.11,-29.3,0
463243,-0.03,-0.06,0.98,1.41,-0.42,0.48,7.33,-4.11,-29.3,0
463254,-0.02,-0.05,0.98,1.51,-0.48,0.56,7.33,-4.11,-29.3,0
463265,-0.02,-0.05,0.98,1.5,-0.61,0.5,7.29,-4.13,-29.47,0
463279,-0.02,-0.05,0.98,1.44,-0.93,-0.01,7.29,-4.13,-29.47,0
463291,-0.02,-0.05,0.98,1.54,-1.15,-0.16,7.29,-4.13,-29.47,0
463305,-0.02,-0.06,0.98,1.52,-1.75,-0.33,7.29,-4.13,-29.47,0
463316,-0.02,-0.05,0.98,1.51,-1.86,-0.31,7.23,-4.08,-29.57,0
463329,-0.02,-0.05,0.98,1.32,-1.72,-0.41,7.23,-4.08,-29.57,0
463340,-0.03,-0.06,0.98,1.42,-1.56,-0.37,7.23,-4.08,-29.57,0
463352,-0.03,-0.06,0.98,1.54,-1.41,-0.24,7.23,-4.08,-29.57,0
463365,-0.03,-0.05,0.98,1.89,-1.02,0.06,7.24,-4.07,-29.64,0
463377,-0.03,-0.05,0.98,2.01,-0.88,0.14,7.24,-4.07,-29.64,0
463391,-0.03,-0.06,0.98,2.13,-0.95,0.12,7.24,-4.07,-29.64,0
463403,-0.03,-0.06,0.98,2.12,-1.17,0.04,7.24,-4.07,-29.64,0
463415,-0.03,-0.06,0.98,1.83,-1.49,-0.07,7.23,-4.02,-29.5,0
463426,-0.03,-0.06,0.98,1.66,-1.5,-0.18,7.23,-4.02,-29.5,0
463438,-0.03,-0.06,0.98,1.55,-1.45,-0.25,7.23,-4.02,-29.5,0
463449,-0.03,-0.06,0.98,1.58,-1.22,-0.12,7.23,-4.02,-29.5,0
463461,-0.03,-0.06,0.98,1.51,-1.06,0.02,7.27,-3.95,-29.56,0
463472,-0.03,-0.06,0.98,1.49,-0.81,0.17,7.27,-3.95,-29.56,0
463482,-0.03,-0.06,0.98,1.54,-0.61,0.31,7.27,-3.95,-29.56,0
463494,-0.03,-0.05,0.98,1.75,-0.43,0.57,7.27,-3.95,-29.56,0
463506,-0.03,-0.05,0.98,1.93,-0.42,0.62,7.27,-3.95,-29.56,0
463518,-0.02,-0.05,0.98,1.9,-0.79,0.46,7.29,-3.95,-29.63,0
463529,-0.03,-0.06,0.98,1.68,-1.03,0.3,7.29,-3.95,-29.63,0
463539,-0.03,-0.06,0.98,1.39,-1.18,0.18,7.29,-3.95,-29.63,0
463550,-0.03,-0.06,0.98,1.1,-1.18,0.05,7.29,-3.95,-29.63,0
463563,-0.03,-0.06,0.98,0.79,-1.07,-0.25,7.25,-4.02,-29.38,0
463574,-0.03,-0.06,0.98,0.87,-1.09,-0.37,7.25,-4.02,-29.38,0
463587,-0.03,-0.06,0.98,0.84,-1.12,-0.33,7.25,-4.02,-29.38,0
463598,-0.03,-0.06,0.98,0.7,-1.04,-0.19,7.25,-4.02,-29.38,0
463610,-0.03,-0.06,0.98,0.58,-0.88,-0.01,7.2,-4.04,-29.2,0
463623,-0.02,-0.05,0.98,0.79,-0.49,0.34,7.2,-4.04,-29.2,0
463633,-0.02,-0.05,0.98,1.04,-0.44,0.37,7.2,-4.04,-29.2,0
463644,-0.02,-0.05,0.98,1.42,-0.53,0.34,7.2,-4.04,-29.2,0
463657,-0.02,-0.05,0.98,2.09,-1.1,0.14,7.2,-4.04,-29.2,0
463668,-0.02,-0.05,0.98,2.09,-1.4,0.01,7.07,-4.21,-29.42,0
463681,-0.03,-0.06,0.98,1.61,-1.4,-0.26,7.07,-4.21,-29.42,0
463692,-0.03,-0.06,0.98,1.28,-1.31,-0.32,7.07,-4.21,-29.42,0
463704,-0.03,-0.06,0.98,1.08,-1.17,-0.33,7.07,-4.21,-29.42,0
463717,-0.03,-0.06,0.98,0.91,-1.0,-0.31,7.02,-4.22,-29.37,0
463729,-0.03,-0.05,0.98,0.91,-0.97,-0.28,7.02,-4.22,-29.37,0
463743,-0.03,-0.05,0.98,1.17,-0.93,-0.13,7.02,-4.22,-29.37,0
463754,-0.03,-0.05,0.98,1.29,-1.01,-0.15,7.02,-4.22,-29.37,0
463767,-0.03,-0.05,0.98,1.66,-1.09,-0.09,7.0,-4.14,-29.25,0
463778,-0.02,-0.05,0.98,1.83,-1.27,-0.08,7.0,-4.14,-29.25,0
463790,-0.02,-0.05,0.98,1.98,-1.48,-0.08,7.0,-4.14,-29.25,0
463801,-0.02,-0.05,0.98,1.96,-1.63,-0.1,7.0,-4.14,-29.25,0
463814,-0.03,-0.05,0.98,1.87,-1.48,-0.12,7.07,-4.13,-29.25,0
463825,-0.03,-0.05,0.98,1.85,-1.33,-0.09,7.07,-4.13,-29.25,0
463838,-0.03,-0.05,0.98,2.02,-1.18,-0.05,7.07,-4.13,-29.25,0
463849,-0.03,-0.06,0.98,2.18,-1.15,0.03,7.07,-4.13,-29.25,0
463863,-0.03,-0.05,0.98,1.98,-1.29,0.04,7.07,-4.03,-29.58,0
463873,-0.03,-0.05,0.98,1.87,-1.33,-0.07,7.07,-4.03,-29.58,0
463883,-0.03,-0.05,0.98,1.58,-1.4,-0.17,7.07,-4.03,-29.58,0
463895,-0.03,-0.06,0.98,0.87,-1.42,-0.33,7.07,-4.03,-29.58,0
463907,-0.03,-0.05,0.98,0.75,-1.33,-0.34,7.07,-4.03,-29.58,0
463918,-0.03,-0.05,0.98,0.88,-1.25,-0.26,6.94,-4.14,-29.53,0
463932,-0.02,-0.05,0.98,1.61,-1.26,-0.17,6.94,-4.14,-29.53,0
463944,-0.02,-0.05,0.98,1.97,-1.32,-0.09,6.94,-4.14,-29.53,0
463957,-0.03,-0.05,0.98,2.05,-1.55,-0.02,6.94,-4.14,-29.53,0
463969,-0.03,-0.05,0.98,1.91,-1.61,-0.0,6.95,-4.23,-29.52,0
463981,-0.03,-0.05,0.98,1.78,-1.35,0.1,6.95,-4.23,-29.52,0
463993,-0.03,-0.05,0.98,1.85,-1.19,0.17,6.95,-4.23,-29.52,0
464003,-0.03,-0.05,0.98,2.03,-1.09,0.2,6.95,-4.23,-29.52,0
464014,-0.03,-0.05,0.98,2.2,-1.08,0.21,6.98,-4.25,-29.42,0
464026,-0.03,-0.05,0.98,1.95,-1.16,0.13,6.98,-4.25,-29.42,0
464038,-0.03,-0.05,0.98,1.85,-1.22,0.09,6.98,-4.25,-29.42,0
464051,-0.03,-0.05,0.98,1.74,-1.5,0.02,6.98,-4.25,-29.42,0
464063,-0.03,-0.05,0.98,1.72,-1.48,0.03,6.97,-4.33,-29.3,0
464073,-0.03,-0.05,0.98,1.7,-1.34,0.09,6.97,-4.33,-29.3,0
464083,-0.03,-0.05,0.98,1.69,-1.2,0.08,6.97,-4.33,-29.3,0
464095,-0.03,-0.05,0.98,1.78,-1.03,0.17,6.97,-4.33,-29.3,0
464105,-0.03,-0.05,0.98,1.75,-0.96,0.24,6.97,-4.33,-29.3,0
464116,-0.03,-0.05,0.98,1.69,-0.98,0.14,7.01,-4.37,-29.34,0
464129,-0.03,-0.05,0.98,1.54,-1.21,-0.08,7.01,-4.37,-29.34,0
464140,-0.03,-0.05,0.98,1.49,-1.47,-0.17,7.01,-4.37,-29.34,0
464152,-0.03,-0.05,0.98,1.62,-1.69,-0.29,7.01,-4.37,-29.34,0
464165,-0.03,-0.05,0.98,1.82,-1.81,-0.28,7.04,-4.44,-29.41,0
464177,-0.03,-0.06,0.98,1.75,-1.75,-0.26,7.04,-4.44,-29.41,0
464189,-0.03,-0.06,0.98,1.67,-1.37,-0.09,7.04,-4.44,-29.41,0
464201,-0.03,-0.05,0.98,1.69,-1.24,0.05,7.04,-4.44,-29.41,0
464212,-0.03,-0.06,0.98,1.64,-1.06,0.15,6.95,-4.49,-29.48,0
464224,-0.03,-0.05,0.98,1.13,-0.6,0.21,6.95,-4.49,-29.48,0
464236,-0.03,-0.05,0.98,1.04,-0.39,0.22,6.95,-4.49,-29.48,0
464249,-0.02,-0.05,0.98,1.49,-0.57,0.2,6.95,-4.49,-29.48,0
464261,-0.02,-0.05,0.98,1.77,-0.83,0.2,7.04,-4.33,-29.44,0
464271,-0.03,-0.05,0.98,1.98,-1.05,0.25,7.04,-4.33,-29.44,0
464282,-0.03,-0.05,0.98,2.02,-1.18,0.21,7.04,-4.33,-29.44,0
464293,-0.03,-0.05,0.98,1.87,-1.16,0.12,7.04,-4.33,-29.44,0
464305,-0.03,-0.05,0.98,1.69,-1.21,0.1,7.04,-4.33,-29.44,0
464318,-0.03,-0.05,0.98,1.57,-1.27,0.03,7.07,-4.17,-29.43,0
464330,-0.03,-0.05,0.98,1.56,-1.18,0.06,7.07,-4.17,-29.43,0
464343,-0.03,-0.05,0.98,1.68,-1.03,0.13,7.07,-4.17,-29.43,0
464354,-0.03,-0.05,0.98,1.77,-0.92,0.1,7.07,-4.17,-29.43,0
464365,-0.03,-0.05,0.98,1.78,-0.99,0.11,7.07,-4.13,-29.41,0
464375,-0.03,-0.05,0.98,1.71,-1.2,0.03,7.07,-4.13,-29.41,0
464387,-0.03,-0.05,0.98,1.59,-1.45,-0.08,7.07,-4.13,-29.41,0
464399,-0.03,-0.05,0.98,1.69,-1.47,0.03,7.07,-4.13,-29.41,0
464411,-0.03,-0.05,0.98,2.07,-1.25,0.18,7.09,-4.12,-29.49,0
464422,-0.03,-0.05,0.98,2.18,-1.09,0.2,7.09,-4.12,-29.49,0
464434,-0.03,-0.05,0.98,2.22,-0.89,0.32,7.09,-4.12,-29.49,0
464447,-0.03,-0.05,0.98,1.86,-0.86,0.4,7.09,-4.12,-29.49,0
464459,-0.03,-0.05,0.98,1.74,-0.81,0.35,7.12,-4.21,-29.47,0
464469,-0.02,-0.05,0.98,1.74,-0.9,0.27,7.12,-4.21,-29.47,0
464481,-0.03,-0.06,0.98,1.83,-1.33,0.24,7.12,-4.21,-29.47,0
464493,-0.03,-0.06,0.98,1.7,-1.27,0.32,7.12,-4.21,-29.47,0
464505,-0.03,-0.06,0.98,1.35,-0.96,0.25,7.12,-4.21,-29.47,0
464518,-0.03,-0.05,0.98,1.37,-0.87,0.18,7.02,-4.18,-29.43,0
464529,-0.03,-0.05,0.98,1.46,-0.76,0.2,7.02,-4.18,-29.43,0
464542,-0.03,-0.05,0.98,1.73,-0.56,0.27,7.02,-4.18,-29.43,0
464553,-0.03,-0.05,0.98,1.92,-0.6,0.27,7.02,-4.18,-29.43,0
464566,-0.03,-0.05,0.98,2.1,-0.9,0.29,6.98,-4.23,-29.24,0
464577,-0.02,-0.05,0.98,2.01,-0.95,0.28,6.98,-4.23,-29.24,0
464587,-0.02,-0.05,0.98,1.85,-0.99,0.2,6.98,-4.23,-29.24,0
464598,-0.02,-0.05,0.98,1.75,-1.12,0.13,6.98,-4.23,-29.24,0
464612,-0.02,-0.05,0.98,1.76,-1.38,0.01,6.96,-4.27,-29.16,0
464622,-0.03,-0.05,0.98,1.85,-1.51,0.05,6.96,-4.27,-29.16,0
464632,-0.03,-0.05,0.98,1.96,-1.5,0.07,6.96,-4.27,-29.16,0
464643,-0.03,-0.05,0.98,2.03,-1.26,0.15,6.96,-4.27,-29.16,0
464654,-0.03,-0.05,0.98,2.13,-1.12,0.22,6.96,-4.27,-29.16,0
464665,-0.03,-0.05,0.98,2.23,-1.03,0.25,6.97,-4.27,-29.16,0
464679,-0.03,-0.06,0.98,2.23,-1.0,0.22,6.97,-4.27,-29.16,0
464691,-0.03,-0.06,0.98,2.08,-1.07,0.23,6.97,-4.27,-29.16,0
464701,-0.03,-0.05,0.98,1.95,-1.05,0.22,6.97,-4.27,-29.16,0
464714,-0.03,-0.05,0.98,1.74,-0.95,0.09,6.99,-4.31,-29.4,0
464724,-0.03,-0.05,0.98,1.76,-0.98,0.03,6.99,-4.31,-29.4,0
464734,-0.03,-0.05,0.98,1.88,-1.04,-0.02,6.99,-4.31,-29.4,0
464747,-0.03,-0.05,0.98,2.19,-1.25,0.01,6.99,-4.31,-29.4,0
464759,-0.03,-0.05,0.98,2.27,-1.29,0.03,7.07,-4.28,-29.5,0
464771,-0.03,-0.05,0.98,2.08,-1.16,0.01,7.07,-4.28,-29.5,0
464782,-0.03,-0.05,0.98,1.89,-1.07,-0.06,7.07,-4.28,-29.5,0
464794,-0.03,-0.05,0.98,1.78,-0.97,-0.04,7.07,-4.28,-29.5,0
464805,-0.03,-0.05,0.98,1.75,-0.92,-0.02,7.07,-4.28,-29.5,0
464818,-0.03,-0.05,0.98,1.77,-0.91,3.4,7.16,-4.34,-29.58,0
464830,-0.03,-0.05,0.98,1.89,-0.86,2.68,7.16,-4.34,-29.58,0
464842,-0.03,-0.05,0.98,2.0,-0.92,1.71,7.16,-4.34,-29.58,0
464852,-0.03,-0.05,0.98,1.95,-0.99,1.28,7.16,-4.34,-29.58,0
464863,-0.03,-0.05,0.98,1.77,-1.01,0.9,7.13,-4.44,-29.54,0
464877,-0.03,-0.06,0.98,1.49,-0.96,0.38,7.13,-4.44,-29.54,0
464887,-0.03,-0.06,0.98,1.51,-0.89,0.3,7.13,-4.44,-29.54,0
464897,-0.03,-0.05,0.98,1.65,-0.79,0.33,7.13,-4.44,-29.54,0
464908,-0.03,-0.05,0.98,1.8,-0.72,0.38,7.07,-4.3,-29.77,0
464919,-0.03,-0.05,0.98,1.9,-0.78,0.4,7.07,-4.3,-29.77,0
464931,-0.03,-0.05,0.98,1.94,-0.8,0.42,7.07,-4.3,-29.77,0
464944,-0.03,-0.05,0.98,1.84,-0.85,0.33,7.07,-4.3,-29.77,0
464955,-0.03,-0.05,0.98,1.94,-0.81,0.24,7.07,-4.3,-29.77,0
464966,-0.02,-0.05,0.98,2.06,-0.73,0.23,7.07,-4.3,-29.81,0
464976,-0.03,-0.05,0.98,2.16,-0.7,0.22,7.07,-4.3,-29.81,0
464988,-0.02,-0.05,0.98,2.58,-0.7,0.24,7.07,-4.3,-29.81,0
464998,-0.02,-0.06,0.98,2.6,-0.88,0.16,7.07,-4.3,-29.81,0
465009,-0.03,-0.06,0.98,2.53,-0.96,0.11,7.09,-4.27,-29.76,0
465019,-0.03,-0.06,0.98,2.39,-1.06,0.07,7.09,-4.27,-29.76,0
465031,-0.03,-0.06,0.98,1.86,-0.95,-0.1,7.09,-4.27,-29.76,0
465043,-0.03,-0.06,0.98,1.69,-0.85,-0.09,7.09,-4.27,-29.76,0
465053,-0.03,-0.06,0.98,1.64,-0.78,0.02,7.09,-4.27,-29.76,0
465066,-0.02,-0.05,0.98,1.87,-0.65,0.3,7.07,-4.29,-29.62,0
465076,-0.02,-0.05,0.98,1.93,-0.57,0.31,7.07,-4.29,-29.62,0
465087,-0.02,-0.05,0.98,2.01,-0.56,0.31,7.07,-4.29,-29.62,0
465099,-0.02,-0.06,0.98,2.03,-0.86,0.26,7.07,-4.29,-29.62,0
465111,-0.02,-0.06,0.98,1.93,-1.05,0.15,7.09,-4.37,-29.48,0
465121,-0.02,-0.06,0.98,1.86,-1.21,0.01,7.09,-4.37,-29.48,0
465131,-0.02,-0.06,0.98,1.74,-1.26,-0.06,7.09,-4.37,-29.48,0
465143,-0.02,-0.05,0.98,1.79,-1.25,-0.08,7.09,-4.37,-29.48,0
465155,-0.02,-0.05,0.98,1.99,-1.17,-0.03,7.09,-4.37,-29.48,0
465168,-0.03,-0.06,0.98,2.38,-1.1,0.19,7.08,-4.25,-29.53,0
465180,-0.03,-0.06,0.98,2.49,-1.01,0.35,7.08,-4.25,-29.53,0
465193,-0.03,-0.06,0.98,2.31,-0.7,0.57,7.08,-4.25,-29.53,0
465204,-0.02,-0.05,0.98,2.35,-0.57,0.55,7.08,-4.25,-29.53,0
465215,-0.02,-0.05,0.98,2.44,-0.61,0.48,7.16,-4.27,-29.69,0
465228,-0.02,-0.06,0.98,2.77,-0.97,0.27,7.16,-4.27,-29.69,0
465240,-0.02,-0.06,0.98,2.74,-1.24,0.19,7.16,-4.27,-29.69,0
465254,-0.03,-0.06,0.98,2.45,-1.15,0.21,7.16,-4.27,-29.69,0
465265,-0.02,-0.06,0.98,2.31,-0.97,0.21,7.13,-4.26,-29.75,0
465277,-0.03,-0.06,0.98,2.23,-0.75,0.21,7.13,-4.26,-29.75,0
465289,-0.02,-0.06,0.98,2.31,-0.38,0.29,7.13,-4.26,-29.75,0
465300,-0.03,-0.06,0.99,2.14,-0.19,0.33,7.13,-4.26,-29.75,0
465313,-0.03,-0.06,0.98,1.09,1.09,0.13,7.16,-4.29,-29.84,0
465324,-0.02,-0.05,0.98,0.8,1.2,-0.14,7.16,-4.29,-29.84,0
465334,-0.02,-0.05,0.98,0.74,0.99,-0.27,7.16,-4.29,-29.84,0
465344,-0.02,-0.06,0.98,0.84,0.63,-0.28,7.16,-4.29,-29.84,0
465354,-0.02,-0.06,0.98,0.81,0.31,-0.27,7.16,-4.29,-29.84,0
465367,-0.02,-0.06,0.98,0.71,0.17,-0.27,7.2,-4.26,-29.87,0
465379,-0.02,-0.05,0.98,0.74,0.13,-0.27,7.2,-4.26,-29.87,0
465390,-0.02,-0.05,0.98,1.05,-0.22,-0.14,7.2,-4.26,-29.87,0
465401,-0.02,-0.06,0.98,1.2,-0.48,-0.13,7.2,-4.26,-29.87,0
465412,-0.02,-0.06,0.98,1.2,-0.67,-0.2,7.24,-4.29,-29.77,0
465423,-0.02,-0.06,0.98,1.22,-0.86,-0.25,7.24,-4.29,-29.77,0
465435,-0.02,-0.06,0.98,1.32,-1.15,-0.22,7.24,-4.29,-29.77,0
465446,-0.02,-0.05,0.98,1.38,-1.19,-0.21,7.24,-4.29,-29.77,0
465458,-0.02,-0.05,0.98,1.47,-1.12,-0.2,7.34,-4.35,-29.63,0
465469,-0.02,-0.06,0.98,1.49,-1.08,-0.17,7.34,-4.35,-29.63,0
465480,-0.02,-0.06,0.98,1.41,-1.13,-0.23,7.34,-4.35,-29.63,0
465491,-0.02,-0.06,0.98,1.37,-1.09,-0.25,7.34,-4.35,-29.63,0
465502,-0.02,-0.06,0.98,1.32,-0.99,-0.08,7.34,-4.35,-29.63,0
465514,-0.02,-0.05,0.98,1.37,-1.04,-0.03,7.37,-4.29,-29.61,0
465526,-0.02,-0.05,0.98,1.42,-1.11,-0.02,7.37,-4.29,-29.61,0
465538,-0.02,-0.05,0.98,1.72,-1.48,-0.08,7.37,-4.29,-29.61,0
465550,-0.02,-0.05,0.98,1.84,-1.77,-0.16,7.37,-4.29,-29.61,0
465562,-0.02,-0.05,0.98,1.61,-2.02,-0.42,7.33,-4.33,-29.57,0
465573,-0.02,-0.06,0.98,1.32,-1.84,-0.58,7.33,-4.33,-29.57,0
465584,-0.02,-0.06,0.98,1.03,-1.69,-0.74,7.33,-4.33,-29.57,0
465595,-0.02,-0.06,0.98,1.02,-1.58,-0.8,7.33,-4.33,-29.57,0
465608,-0.02,-0.06,0.98,1.07,-1.41,-0.55,7.37,-4.31,-29.47,0
465619,-0.02,-0.05,0.98,1.01,-1.3,-0.44,7.37,-4.31,-29.47,0
465632,-0.02,-0.05,0.98,0.91,-0.91,-0.4,7.37,-4.31,-29.47,0
465643,-0.02,-0.05,0.98,0.88,-0.91,-0.32,7.37,-4.31,-29.47,0
465654,-0.02,-0.05,0.98,0.98,-0.95,-0.25,7.37,-4.31,-29.47,0
465667,-0.02,-0.05,0.98,1.19,-1.02,-0.11,7.48,-4.29,-29.24,0
465678,-0.02,-0.05,0.98,1.37,-1.01,-0.03,7.48,-4.29,-29.24,0
465689,-0.02,-0.05,0.98,1.62,-1.06,0.01,7.48,-4.29,-29.24,0
465701,-0.02,-0.05,0.98,1.94,-1.09,0.13,7.48,-4.29,-29.24,0
465712,-0.02,-0.05,0.98,1.98,-1.14,0.14,7.44,-4.19,-29.23,0
465722,-0.02,-0.05,0.98,1.87,-1.22,0.1,7.44,-4.19,-29.23,0
465732,-0.02,-0.05,0.98,1.69,-1.25,-0.01,7.44,-4.19,-29.23,0
465744,-0.02,-0.05,0.98,1.47,-1.26,-0.04,7.44,-4.19,-29.23,0
465757,-0.02,-0.05,0.98,1.48,-1.31,-0.06,7.57,-4.15,-29.24,0
465768,-0.02,-0.05,0.98,1.65,-1.16,0.02,7.57,-4.15,-29.24,0
465779,-0.02,-0.05,0.98,1.65,-1.06,0.03,7.57,-4.15,-29.24,0
465791,-0.02,-0.05,0.98,1.73,-0.99,0.09,7.57,-4.15,-29.24,0
465801,-0.02,-0.05,0.98,1.82,-0.93,0.16,7.57,-4.15,-29.24,0
465814,-0.02,-0.05,0.98,2.0,-0.87,0.32,7.54,-4.31,-29.35,0
465824,-0.02,-0.05,0.98,2.05,-0.87,0.31,7.54,-4.31,-29.35,0
465834,-0.02,-0.05,0.98,2.08,-0.9,0.23,7.54,-4.31,-29.35,0
465844,-0.02,-0.05,0.98,2.08,-1.08,0.13,7.54,-4.31,-29.35,0
465857,-0.02,-0.05,0.98,1.96,-1.37,0.03,7.51,-4.25,-29.17,0
465868,-0.02,-0.05,0.98,1.85,-1.44,-0.0,7.51,-4.25,-29.17,0
465880,-0.02,-0.05,0.98,1.5,-1.25,-0.1,7.51,-4.25,-29.17,0
465891,-0.02,-0.05,0.98,1.37,-1.25,-0.13,7.51,-4.25,-29.17,0
465902,-0.02,-0.05,0.98,1.34,-1.23,-0.15,7.51,-4.25,-29.17,0
465916,-0.02,-0.05,0.98,1.56,-1.25,-0.14,7.54,-4.29,-29.32,0
465926,-0.02,-0.05,0.98,1.63,-1.27,-0.07,7.54,-4.29,-29.32,0
465937,-0.02,-0.05,0.98,1.69,-1.26,0.02,7.54,-4.29,-29.32,0
465950,-0.02,-0.05,0.98,1.89,-1.12,0.07,7.54,-4.29,-29.32,0
465961,-0.02,-0.05,0.98,2.04,-1.07,0.14,7.48,-4.17,-29.16,0
465971,-0.02,-0.05,0.98,2.13,-1.11,0.21,7.48,-4.17,-29.16,0
465981,-0.02,-0.05,0.98,2.13,-1.13,0.22,7.48,-4.17,-29.16,0
465993,-0.02,-0.05,0.98,2.03,-1.08,0.26,7.48,-4.17,-29.16,0
466003,-0.02,-0.05,0.98,2.02,-1.15,0.19,7.48,-4.17,-29.16,0
466014,-0.02,-0.05,0.98,2.13,-1.3,0.09,7.49,-4.22,-29.24,0
466024,-0.02,-0.05,0.98,2.24,-1.49,0.05,7.49,-4.22,-29.24,0
466036,-0.02,-0.06,0.98,2.11,-1.55,0.03,7.49,-4.22,-29.24,0
466046,-0.02,-0.06,0.98,1.99,-1.37,0.08,7.49,-4.22,-29.24,0
466057,-0.02,-0.05,0.98,1.89,-1.15,0.17,7.51,-4.13,-29.57,0
466070,-0.02,-0.05,0.98,1.85,-0.78,0.18,7.51,-4.13,-29.57,0
466082,-0.02,-0.05,0.98,1.83,-0.77,0.11,7.51,-4.13,-29.57,0
466096,-0.02,-0.05,0.98,1.63,-0.88,0.06,7.51,-4.13,-29.57,0
466107,-0.02,-0.05,0.98,1.44,-0.88,0.02,7.56,-4.1,-29.58,0
466117,-0.02,-0.05,0.98,1.39,-0.83,0.0,7.56,-4.1,-29.58,0
466127,-0.02,-0.05,0.98,1.54,-0.84,-0.01,7.56,-4.1,-29.58,0
466139,-0.02,-0.05,0.98,2.01,-1.11,-0.04,7.56,-4.1,-29.58,0
466150,-0.02,-0.05,0.98,2.2,-1.34,-0.04,7.56,-4.1,-29.58,0
466163,-0.02,-0.06,0.98,2.06,-1.53,0.03,7.55,-4.19,-29.36,0
466174,-0.02,-0.06,0.98,1.89,-1.38,0.09,7.55,-4.19,-29.36,0
466184,-0.02,-0.05,0.98,1.7,-1.15,0.16,7.55,-4.19,-29.36,0
466194,-0.02,-0.05,0.98,1.62,-0.92,0.22,7.55,-4.19,-29.36,0
466204,-0.02,-0.05,0.98,1.69,-0.77,0.24,7.55,-4.19,-29.36,0
466217,-0.02,-0.05,0.98,1.99,-0.96,0.18,7.5,-4.25,-28.97,0
466227,-0.02,-0.05,0.98,2.14,-1.06,0.14,7.5,-4.25,-28.97,0
466237,-0.02,-0.06,0.98,2.21,-1.15,0.1,7.5,-4.25,-28.97,0
466250,-0.02,-0.06,0.98,1.9,-1.14,-0.06,7.5,-4.25,-28.97,0
466261,-0.02,-0.06,0.98,1.6,-1.03,-0.16,7.43,-4.38,-29.07,0
466273,-0.02,-0.05,0.98,1.4,-0.95,-0.22,7.43,-4.38,-29.07,0
466285,-0.02,-0.05,0.98,1.4,-1.07,-0.22,7.43,-4.38,-29.07,0
466297,-0.02,-0.05,0.98,1.43,-1.16,-0.11,7.43,-4.38,-29.07,0
466309,-0.02,-0.05,0.98,1.53,-1.09,-0.01,7.51,-4.35,-29.15,0
466320,-0.02,-0.05,0.98,1.54,-0.94,0.0,7.51,-4.35,-29.15,0
466332,-0.02,-0.05,0.98,1.55,-0.88,0.02,7.51,-4.35,-29.15,0
466342,-0.02,-0.05,0.98,1.65,-0.94,0.05,7.51,-4.35,-29.15,0
466354,-0.02,-0.05,0.98,1.8,-1.09,0.1,7.51,-4.35,-29.15,0
466365,-0.02,-0.05,0.98,1.83,-1.17,0.06,7.55,-4.38,-29.04,0
466375,-0.02,-0.05,0.98,1.89,-1.22,0.02,7.55,-4.38,-29.04,0
466385,-0.02,-0.05,0.98,1.9,-1.21,0.0,7.55,-4.38,-29.04,0
466397,-0.02,-0.06,0.98,1.8,-1.34,-0.1,7.55,-4.38,-29.04,0
466408,-0.02,-0.06,0.98,1.74,-1.39,-0.14,7.52,-4.36,-29.08,0
466421,-0.02,-0.06,0.98,1.56,-1.25,-0.13,7.52,-4.36,-29.08,0
466432,-0.02,-0.05,0.98,1.54,-1.13,-0.12,7.52,-4.36,-29.08,0
466443,-0.02,-0.05,0.98,1.72,-1.06,0.0,7.52,-4.36,-29.08,0
466458,-0.02,-0.05,0.98,2.04,-0.97,0.1,7.51,-4.4,-29.22,0
466470,-0.02,-0.05,0.98,2.2,-1.01,0.13,7.51,-4.4,-29.22,0
466481,-0.02,-0.05,0.98,2.18,-0.98,0.17,7.51,-4.4,-29.22,0
466492,-0.02,-0.06,0.98,2.03,-1.07,0.14,7.51,-4.4,-29.22,0
466502,-0.02,-0.05,0.98,1.87,-1.09,0.12,7.51,-4.4,-29.22,0
466513,-0.02,-0.05,0.98,1.72,-1.09,0.11,7.48,-4.53,-29.15,0
466524,-0.02,-0.05,0.98,1.81,-1.13,0.02,7.48,-4.53,-29.15,0
466535,-0.02,-0.05,0.98,2.0,-1.2,0.03,7.48,-4.53,-29.15,0
466545,-0.02,-0.05,0.98,2.11,-1.32,0.09,7.48,-4.53,-29.15,0
466556,-0.02,-0.05,0.98,2.16,-1.38,0.14,7.53,-4.54,-29.03,0
466568,-0.02,-0.06,0.98,2.01,-1.23,0.13,7.53,-4.54,-29.03,0
466578,-0.02,-0.05,0.98,2.01,-1.01,0.14,7.53,-4.54,-29.03,0
466588,-0.02,-0.05,0.98,2.12,-0.92,0.17,7.53,-4.54,-29.03,0
466598,-0.02,-0.05,0.98,2.15,-0.98,0.18,7.53,-4.54,-29.03,0
466611,-0.02,-0.06,0.98,2.3,-0.98,0.13,7.59,-4.54,-29.03,0
466621,-0.02,-0.06,0.98,2.14,-1.05,0.13,7.59,-4.54,-29.03,0
466631,-0.02,-0.05,0.98,1.92,-1.19,0.04,7.59,-4.54,-29.03,0
466641,-0.02,-0.05,0.98,1.86,-1.31,-0.01,7.59,-4.54,-29.03,0
466655,-0.02,-0.05,0.98,1.97,-1.16,0.1,7.63,-4.55,-29.31,0
466667,-0.02,-0.05,0.98,2.01,-1.22,0.08,7.63,-4.55,-29.31,0
466678,-0.02,-0.05,0.98,2.15,-1.26,0.04,7.63,-4.55,-29.31,0
466689,-0.02,-0.06,0.98,2.05,-1.32,0.09,7.63,-4.55,-29.31,0
466701,-0.02,-0.06,0.98,1.96,-1.35,0.1,7.63,-4.55,-29.31,0
466714,-0.02,-0.06,0.98,1.99,-1.18,0.22,7.65,-4.47,-29.49,0
466725,-0.02,-0.05,0.98,1.83,-1.07,0.27,7.65,-4.47,-29.49,0
466736,-0.02,-0.05,0.98,1.66,-0.99,0.22,7.65,-4.47,-29.49,0
466747,-0.02,-0.05,0.98,1.64,-1.21,0.0,7.65,-4.47,-29.49,0
466759,-0.02,-0.05,0.98,1.68,-1.38,0.0,7.69,-4.4,-29.46,0
466769,-0.02,-0.05,0.98,1.74,-1.45,0.01,7.69,-4.4,-29.46,0
466779,-0.02,-0.05,0.98,1.79,-1.44,-0.06,7.69,-4.4,-29.46,0
466790,-0.02,-0.06,0.98,1.83,-1.31,-0.03,7.69,-4.4,-29.46,0
466801,-0.02,-0.06,0.98,1.67,-1.28,0.02,7.69,-4.4,-29.46,0
466812,-0.02,-0.06,0.98,1.64,-1.18,0.09,7.51,-4.45,-29.32,0
466826,-0.02,-0.05,0.98,1.77,-1.07,0.19,7.51,-4.45,-29.32,0
466836,-0.02,-0.05,0.98,1.99,-1.15,0.24,7.51,-4.45,-29.32,0
466847,-0.02,-0.05,0.98,2.22,-1.2,0.25,7.51,-4.45,-29.32,0
466860,-0.02,-0.06,0.98,2.09,-1.32,0.14,7.5,-4.53,-29.27,0
466872,-0.02,-0.06,0.98,1.87,-1.31,0.05,7.5,-4.53,-29.27,0
466886,-0.02,-0.06,0.98,1.4,-1.07,-0.06,7.5,-4.53,-29.27,0
466897,-0.02,-0.05,0.98,1.27,-1.04,-0.14,7.5,-4.53,-29.27,0
466908,-0.02,-0.05,0.98,1.3,-1.06,-0.22,7.59,-4.54,-29.08,0
466921,-0.02,-0.05,0.98,1.41,-1.2,-0.22,7.59,-4.54,-29.08,0
466931,-0.02,-0.05,0.98,1.22,-1.4,-0.29,7.59,-4.54,-29.08,0
466942,-0.02,-0.05,0.98,1.07,-1.52,-0.36,7.59,-4.54,-29.08,0
466956,-0.02,-0.05,0.98,0.85,-1.3,-0.37,7.53,-4.61,-29.17,0
466967,-0.02,-0.05,0.98,0.95,-1.2,-0.36,7.53,-4.61,-29.17,0
466979,-0.02,-0.05,0.98,1.62,-1.27,-0.11,7.53,-4.61,-29.17,0
466990,-0.02,-0.05,0.98,1.88,-1.42,0.01,7.53,-4.61,-29.17,0
467000,-0.02,-0.05,0.98,2.01,-1.55,-0.03,7.53,-4.61,-29.17,0
467011,-0.02,-0.05,0.98,2.09,-1.54,-0.13,7.6,-4.52,-29.09,0
467023,-0.02,-0.06,0.98,2.01,-1.57,-0.15,7.6,-4.52,-29.09,0
467035,-0.02,-0.06,0.98,1.76,-1.52,-0.13,7.6,-4.52,-29.09,0
467047,-0.02,-0.06,0.98,1.35,-1.08,-0.06,7.6,-4.52,-29.09,0
467059,-0.02,-0.06,0.98,1.25,-0.95,-0.0,7.56,-4.45,-29.24,0
467071,-0.02,-0.05,0.98,1.38,-1.02,0.02,7.56,-4.45,-29.24,0
467083,-0.02,-0.05,0.98,2.09,-1.26,0.08,7.56,-4.45,-29.24,0
467095,-0.02,-0.05,0.98,2.25,-1.37,0.07,7.56,-4.45,-29.24,0
467106,-0.02,-0.05,0.98,2.21,-1.53,-0.01,7.56,-4.48,-29.09,0
467118,-0.02,-0.06,0.98,1.89,-1.54,-0.15,7.56,-4.48,-29.09,0
467130,-0.02,-0.06,0.98,1.8,-1.41,-0.13,7.56,-4.48,-29.09,0
467143,-0.02,-0.05,0.98,2.06,-1.24,0.06,7.56,-4.48,-29.09,0
467154,-0.02,-0.05,0.98,2.3,-1.24,0.14,7.46,-4.54,-29.29,0
467165,-0.02,-0.06,0.98,2.47,-1.19,0.24,7.46,-4.54,-29.29,0
467175,-0.03,-0.06,0.98,2.48,-1.19,0.31,7.46,-4.54,-29.29,0
467187,-0.02,-0.06,0.98,2.2,-1.12,0.29,7.46,-4.54,-29.29,0
467197,-0.02,-0.05,0.98,1.94,-1.15,0.18,7.46,-4.54,-29.29,0
467208,-0.02,-0.05,0.98,1.7,-1.24,0.06,7.57,-4.53,-29.13,0
467219,-0.02,-0.06,0.98,1.51,-1.24,0.02,7.57,-4.53,-29.13,0
467230,-0.02,-0.05,0.98,1.53,-1.3,0.07,7.57,-4.53,-29.13,0
467241,-0.02,-0.05,0.98,1.79,-1.36,0.14,7.57,-4.53,-29.13,0
467252,-0.02,-0.05,0.98,2.13,-1.36,0.25,7.57,-4.53,-29.13,0
467265,-0.02,-0.05,0.98,2.56,-1.27,0.46,7.58,-4.49,-29.02,0
467275,-0.02,-0.05,0.98,2.57,-1.26,0.44,7.58,-4.49,-29.02,0
467285,-0.02,-0.06,0.98,2.5,-1.23,0.37,7.58,-4.49,-29.02,0
467298,-0.02,-0.06,0.98,2.0,-1.23,0.15,7.58,-4.49,-29.02,0
467309,-0.02,-0.06,0.98,1.73,-1.2,0.06,7.66,-4.49,-29.24,0
467322,-0.02,-0.06,0.98,1.55,-1.17,-0.02,7.66,-4.49,-29.24,0
467333,-0.02,-0.05,0.98,1.52,-1.24,-0.0,7.66,-4.49,-29.24,0
467345,-0.02,-0.05,0.98,1.66,-1.34,0.05,7.66,-4.49,-29.24,0
467358,-0.02,-0.05,0.98,1.94,-1.33,0.25,7.53,-4.48,-29.27,0
467370,-0.02,-0.05,0.98,2.05,-1.34,0.3,7.53,-4.48,-29.27,0
467380,-0.02,-0.06,0.98,2.16,-1.26,0.37,7.53,-4.48,-29.27,0
467391,-0.02,-0.06,0.98,2.23,-1.09,0.59,7.53,-4.48,-29.27,0
467402,-0.03,-0.06,0.98,2.14,-1.05,0.58,7.53,-4.48,-29.27,0
467413,-0.03,-0.06,0.98,2.12,-1.07,0.56,7.52,-4.39,-29.17,0
467423,-0.02,-0.06,0.98,2.04,-1.15,0.55,7.52,-4.39,-29.17,0
467434,-0.02,-0.06,0.98,1.5,-1.16,0.14,7.52,-4.39,-29.17,0
467445,-0.02,-0.06,0.98,1.42,-1.11,0.02,7.52,-4.39,-29.17,0
467456,-0.02,-0.06,0.98,1.46,-1.16,-0.01,7.37,-4.3,-29.31,0
467470,-0.02,-0.06,0.98,1.48,-1.25,-0.01,7.37,-4.3,-29.31,0
467480,-0.03,-0.05,0.98,1.44,-1.18,-0.06,7.37,-4.3,-29.31,0
467491,-0.02,-0.05,0.98,1.47,-1.08,-0.09,7.37,-4.3,-29.31,0
467504,-0.02,-0.06,0.98,1.51,-1.06,0.01,7.23,-4.24,-29.39,0
467514,-0.02,-0.06,0.98,1.56,-1.11,0.05,7.23,-4.24,-29.39,0
467524,-0.02,-0.05,0.98,1.6,-1.01,0.08,7.23,-4.24,-29.39,0
467534,-0.02,-0.05,0.98,1.56,-0.98,0.1,7.23,-4.24,-29.39,0
467547,-0.02,-0.05,0.98,1.44,-0.97,0.18,7.23,-4.24,-29.39,0
467558,-0.02,-0.05,0.98,1.4,-0.92,0.22,7.06,-4.26,-29.29,0
467571,-0.02,-0.05,0.98,1.58,-0.75,0.3,7.06,-4.26,-29.29,0
467582,-0.02,-0.05,0.98,1.79,-0.78,0.41,7.06,-4.26,-29.29,0
467594,-0.02,-0.05,0.98,1.92,-0.91,0.49,7.06,-4.26,-29.29,0
467605,-0.02,-0.05,0.98,1.95,-0.99,0.53,7.05,-4.31,-29.28,0
467616,-0.02,-0.06,0.98,1.91,-1.11,0.41,7.05,-4.31,-29.28,0
467627,-0.02,-0.06,0.98,1.8,-1.21,0.21,7.05,-4.31,-29.28,0
467640,-0.02,-0.06,0.98,1.49,-1.36,0.13,7.05,-4.31,-29.28,0
467651,-0.03,-0.06,0.98,1.38,-1.17,0.17,7.05,-4.31,-29.28,0
467662,-0.02,-0.06,0.98,1.34,-0.89,0.25,6.99,-4.34,-29.39,0
467676,-0.02,-0.05,0.98,1.58,-0.53,0.2,6.99,-4.34,-29.39,0
467687,-0.02,-0.05,0.98,1.84,-0.56,0.17,6.99,-4.34,-29.39,0
467698,-0.02,-0.05,0.98,1.94,-0.76,0.15,6.99,-4.34,-29.39,0
467711,-0.02,-0.06,0.98,1.67,-1.25,-0.08,7.02,-4.34,-29.53,0
467722,-0.02,-0.05,0.98,1.35,-1.37,-0.19,7.02,-4.34,-29.53,0
467736,-0.02,-0.05,0.98,1.12,-1.35,-0.29,7.02,-4.34,-29.53,0
467748,-0.02,-0.05,0.98,1.33,-1.32,-0.27,7.02,-4.34,-29.53,0
467760,-0.02,-0.05,0.98,1.83,-1.29,-0.03,6.99,-4.48,-29.62,0
467771,-0.02,-0.05,0.98,1.93,-1.24,0.01,6.99,-4.48,-29.62,0
467783,-0.02,-0.05,0.98,1.93,-1.1,-0.04,6.99,-4.48,-29.62,0
467797,-0.02,-0.06,0.98,1.85,-1.12,-0.1,6.99,-4.48,-29.62,0
467808,-0.02,-0.06,0.98,1.78,-1.17,-0.11,7.11,-4.49,-29.51,0
467821,-0.02,-0.06,0.98,1.59,-1.11,-0.16,7.11,-4.49,-29.51,0
467832,-0.02,-0.06,0.98,1.56,-1.12,-0.16,7.11,-4.49,-29.51,0
467843,-0.02,-0.05,0.98,1.68,-1.2,-0.11,7.11,-4.49,-29.51,0
467856,-0.02,-0.06,0.98,2.07,-1.3,-0.02,7.18,-4.44,-29.53,0
467868,-0.02,-0.06,0.98,2.19,-1.31,0.07,7.18,-4.44,-29.53,0
467882,-0.02,-0.05,0.98,2.28,-1.2,0.15,7.18,-4.44,-29.53,0
467893,-0.02,-0.05,0.98,2.32,-1.18,0.14,7.18,-4.44,-29.53,0
467904,-0.02,-0.06,0.98,2.25,-1.22,0.08,7.1,-4.41,-29.57,0
467917,-0.03,-0.06,0.98,1.87,-1.36,-0.01,7.1,-4.41,-29.57,0
467928,-0.02,-0.06,0.98,1.62,-1.22,-0.05,7.1,-4.41,-29.57,0
467942,-0.02,-0.05,0.98,1.55,-1.16,-0.08,7.1,-4.41,-29.57,0
467953,-0.02,-0.05,0.98,1.8,-1.23,-0.12,7.21,-4.33,-29.48,0
467964,-0.02,-0.05,0.98,2.04,-1.35,-0.12,7.21,-4.33,-29.48,0
467975,-0.02,-0.06,0.98,2.08,-1.64,-0.15,7.21,-4.33,-29.48,0
467986,-0.03,-0.06,0.98,1.96,-1.56,-0.19,7.21,-4.33,-29.48,0
467998,-0.03,-0.06,0.98,1.78,-1.27,-0.12,7.21,-4.33,-29.48,0
468011,-0.03,-0.06,0.98,1.81,-0.94,0.16,7.23,-4.5,-29.59,0
468021,-0.02,-0.06,0.98,1.97,-0.8,0.22,7.23,-4.5,-29.59,0
468031,-0.02,-0.06,0.98,2.01,-0.64,0.36,7.23,-4.5,-29.59,0
468043,-0.02,-0.06,0.98,1.84,-0.72,0.53,7.23,-4.5,-29.59,0
468055,-0.02,-0.05,0.98,2.02,-0.74,0.54,7.17,-4.48,-29.69,0
468067,-0.02,-0.05,0.98,2.33,-0.67,0.62,7.17,-4.48,-29.69,0
468079,-0.02,-0.05,0.98,2.73,-0.89,0.57,7.17,-4.48,-29.69,0
468091,-0.02,-0.05,0.98,2.98,-0.99,0.5,7.17,-4.48,-29.69,0
468104,-0.02,-0.06,0.98,3.46,-1.09,0.58,7.02,-4.54,-29.49,0
468116,-0.02,-0.06,0.98,3.17,-1.24,0.44,7.02,-4.54,-29.49,0
468128,-0.02,-0.06,0.98,2.87,-1.07,0.39,7.02,-4.54,-29.49,0
468140,-0.02,-0.06,0.98,1.8,-0.82,0.32,7.02,-4.54,-29.49,0
468153,-0.02,-0.06,0.98,1.32,-0.78,0.14,6.97,-4.51,-29.36,0
468164,-0.02,-0.05,0.98,1.34,-0.7,0.11,6.97,-4.51,-29.36,0
468175,-0.02,-0.05,0.98,1.63,-0.76,0.15,6.97,-4.51,-29.36,0
468185,-0.02,-0.05,0.98,2.0,-0.89,0.24,6.97,-4.51,-29.36,0
468196,-0.02,-0.06,0.98,2.31,-0.82,0.38,6.97,-4.51,-29.36,0
468209,-0.02,-0.06,0.98,2.29,-0.91,0.44,7.05,-4.55,-29.41,0
468220,-0.02,-0.06,0.98,2.13,-0.99,0.35,7.05,-4.55,-29.41,0
468230,-0.02,-0.06,0.98,2.09,-0.99,0.35,7.05,-4.55,-29.41,0
468241,-0.02,-0.06,0.98,1.93,-1.15,0.3,7.05,-4.55,-29.41,0
468253,-0.02,-0.06,0.99,1.96,-1.12,0.18,7.06,-4.45,-29.51,0
468263,-0.02,-0.06,0.98,1.99,-0.92,0.21,7.06,-4.45,-29.51,0
468275,-0.02,-0.06,0.98,1.74,-0.85,0.21,7.06,-4.45,-29.51,0
468286,-0.02,-0.06,0.98,1.83,-0.85,0.27,7.06,-4.45,-29.51,0
468297,-0.02,-0.06,0.98,1.93,-0.77,0.39,7.06,-4.45,-29.51,0
468308,-0.02,-0.06,0.98,2.09,-0.8,0.5,7.19,-4.39,-29.34,0
468320,-0.02,-0.05,0.98,2.81,-0.85,0.6,7.19,-4.39,-29.34,0
468330,-0.02,-0.06,0.98,3.12,-0.87,0.62,7.19,-4.39,-29.34,0
468341,-0.02,-0.06,0.98,3.2,-0.98,0.59,7.19,-4.39,-29.34,0
468353,-0.02,-0.06,0.98,2.92,-1.17,0.53,7.15,-4.25,-29.48,0
468365,-0.02,-0.06,0.98,2.63,-1.12,0.45,7.15,-4.25,-29.48,0
468377,-0.02,-0.06,0.98,2.24,-1.08,0.34,7.15,-4.25,-29.48,0
468389,-0.02,-0.06,0.98,1.86,-1.24,0.21,7.15,-4.25,-29.48,0
468401,-0.02,-0.06,0.98,1.77,-1.2,0.15,7.15,-4.25,-29.48,0
468413,-0.02,-0.06,0.98,1.87,-1.1,0.13,7.3,-4.17,-29.53,0
468424,-0.02,-0.06,0.98,2.07,-1.02,0.1,7.3,-4.17,-29.53,0
468436,-0.02,-0.06,0.98,2.27,-0.97,0.13,7.3,-4.17,-29.53,0
468446,-0.02,-0.06,0.98,2.32,-0.99,0.13,7.3,-4.17,-29.53,0
468459,-0.02,-0.06,0.98,1.76,-1.19,-0.04,7.33,-4.02,-29.72,0
468470,-0.02,-0.06,0.98,1.4,-1.16,-0.15,7.33,-4.02,-29.72,0
468482,-0.02,-0.06,0.98,1.05,-1.33,-0.27,7.33,-4.02,-29.72,0
468493,-0.02,-0.06,0.98,1.02,-1.25,-0.29,7.33,-4.02,-29.72,0
468505,-0.02,-0.06,0.98,1.01,-1.18,-0.32,7.34,-3.92,-29.51,0
468516,-0.02,-0.06,0.98,0.9,-1.27,-0.33,7.34,-3.92,-29.51,0
468527,-0.02,-0.06,0.98,1.06,-1.25,-0.32,7.34,-3.92,-29.51,0
468539,-0.02,-0.06,0.98,1.4,-1.09,-0.13,7.34,-3.92,-29.51,0
468550,-0.02,-0.05,0.98,1.95,-1.05,0.09,7.34,-3.92,-29.51,0
468562,-0.02,-0.05,0.98,2.18,-1.17,0.03,7.28,-3.92,-29.29,0
468574,-0.02,-0.06,0.98,2.3,-1.17,-0.1,7.28,-3.92,-29.29,0
468586,-0.02,-0.06,0.98,1.71,-1.57,-0.24,7.28,-3.92,-29.29,0
468598,-0.02,-0.06,0.98,1.59,-1.6,-0.29,7.28,-3.92,-29.29,0
468610,-0.02,-0.06,0.98,1.42,-1.36,-0.12,7.36,-3.92,-29.28,0
468621,-0.02,-0.06,0.98,1.45,-1.22,-0.14,7.36,-3.92,-29.28,0
468633,-0.02,-0.06,0.98,1.69,-1.14,-0.13,7.36,-3.92,-29.28,0
468647,-0.02,-0.06,0.98,1.96,-1.04,0.1,7.36,-3.92,-29.28,0
468658,-0.02,-0.06,0.98,2.0,-1.12,0.13,7.26,-3.81,-29.0,0
468671,-0.02,-0.06,0.98,1.94,-1.07,0.1,7.26,-3.81,-29.0,0
468682,-0.02,-0.06,0.98,1.7,-1.1,0.05,7.26,-3.81,-29.0,0
468692,-0.02,-0.06,0.98,1.46,-1.14,-0.07,7.26,-3.81,-29.0,0
468703,-0.02,-0.06,0.98,1.34,-1.16,-0.23,7.24,-3.76,-29.16,0
468715,-0.02,-0.06,0.98,1.31,-1.12,-0.23,7.24,-3.76,-29.16,0
468727,-0.02,-0.06,0.98,1.29,-1.12,-0.29,7.24,-3.76,-29.16,0
468741,-0.02,-0.06,0.98,1.51,-0.96,-0.21,7.24,-3.76,-29.16,0
468752,-0.02,-0.06,0.98,1.45,-1.01,-0.07,7.22,-3.9,-28.96,0
468765,-0.02,-0.06,0.98,1.48,-1.03,-0.04,7.22,-3.9,-28.96,0
468776,-0.02,-0.06,0.98,1.58,-0.92,-0.11,7.22,-3.9,-28.96,0
468788,-0.02,-0.06,0.98,1.68,-0.98,-0.15,7.22,-3.9,-28.96,0
468799,-0.02,-0.06,0.98,1.61,-1.13,-0.17,7.22,-3.9,-28.96,0
468811,-0.02,-0.06,0.98,1.42,-1.02,-0.15,7.15,-3.88,-28.99,0
468822,-0.02,-0.06,0.98,1.09,-0.89,-0.18,7.15,-3.88,-28.99,0
468834,-0.02,-0.06,0.98,1.01,-0.86,-0.14,7.15,-3.88,-28.99,0
468845,-0.02,-0.06,0.98,1.23,-0.86,-0.01,7.15,-3.88,-28.99,0
468856,-0.02,-0.06,0.98,1.46,-0.91,0.15,7.18,-3.83,-28.95,0
468870,-0.02,-0.06,0.98,1.81,-0.89,0.21,7.18,-3.83,-28.95,0
468882,-0.02,-0.06,0.98,1.95,-0.8,0.31,7.18,-3.83,-28.95,0
468892,-0.02,-0.06,0.98,1.88,-0.75,0.44,7.18,-3.83,-28.95,0
468905,-0.02,-0.06,0.98,1.77,-0.72,0.38,7.22,-3.82,-28.97,0
468916,-0.02,-0.06,0.98,1.78,-0.73,0.32,7.22,-3.82,-28.97,0
468927,-0.02,-0.06,0.98,1.76,-0.83,0.31,7.22,-3.82,-28.97,0
468939,-0.02,-0.06,0.98,1.73,-1.11,0.26,7.22,-3.82,-28.97,0
468951,-0.02,-0.06,0.98,1.73,-1.12,0.2,7.2,-3.84,-28.95,0
468962,-0.02,-0.06,0.98,1.86,-1.03,0.21,7.2,-3.84,-28.95,0
468974,-0.02,-0.06,0.98,1.91,-1.03,0.12,7.2,-3.84,-28.95,0
468985,-0.02,-0.06,0.98,1.99,-1.11,0.07,7.2,-3.84,-28.95,0
468997,-0.02,-0.06,0.98,1.92,-1.16,0.05,7.2,-3.84,-28.95,0
469009,-0.02,-0.06,0.98,1.7,-1.12,0.0,7.19,-3.92,-29.03,0
469020,-0.02,-0.06,0.98,1.52,-0.99,-0.09,7.19,-3.92,-29.03,0
469033,-0.02,-0.06,0.98,1.46,-0.84,-0.0,7.19,-3.92,-29.03,0
469044,-0.02,-0.05,0.98,1.53,-0.82,0.08,7.19,-3.92,-29.03,0
469057,-0.02,-0.06,0.98,1.98,-0.87,0.32,7.19,-3.95,-28.99,0
469068,-0.02,-0.06,0.98,2.13,-0.98,0.4,7.19,-3.95,-28.99,0
469078,-0.02,-0.06,0.98,2.24,-1.04,0.42,7.19,-3.95,-28.99,0
469089,-0.02,-0.06,0.98,2.31,-1.07,0.43,7.19,-3.95,-28.99,0
469103,-0.02,-0.06,0.98,2.49,-1.22,0.28,7.1,-4.03,-28.96,0
469114,-0.02,-0.06,0.98,2.46,-1.33,0.25,7.1,-4.03,-28.96,0
469126,-0.02,-0.06,0.98,2.26,-1.31,0.04,7.1,-4.03,-28.96,0
469137,-0.02,-0.06,0.98,2.17,-1.28,0.01,7.1,-4.03,-28.96,0
469148,-0.02,-0.06,0.98,2.1,-1.2,0.08,7.1,-4.03,-28.96,0
469162,-0.02,-0.06,0.98,2.11,-0.96,0.28,7.03,-3.96,-29.01,0
469173,-0.02,-0.06,0.98,2.17,-0.79,0.34,7.03,-3.96,-29.01,0
469187,-0.02,-0.06,0.98,2.51,-0.55,0.53,7.03,-3.96,-29.01,0
469199,-0.02,-0.06,0.98,2.67,-0.48,0.6,7.03,-3.96,-29.01,0
469210,-0.02,-0.05,0.98,2.86,-0.27,0.58,6.98,-3.97,-29.09,0
469222,-0.02,-0.06,0.98,3.45,0.19,0.57,6.98,-3.97,-29.09,0
469234,-0.02,-0.06,0.98,3.43,-0.12,0.52,6.98,-3.97,-29.09,0
469247,-0.02,-0.07,0.98,3.15,-0.45,0.7,6.98,-3.97,-29.09,0
469259,-0.02,-0.06,0.98,2.75,-0.46,0.69,7.01,-3.99,-29.25,0
469272,-0.02,-0.06,0.98,2.69,-0.31,0.67,7.01,-3.99,-29.25,0
469283,-0.02,-0.06,0.98,2.96,-0.36,0.82,7.01,-3.99,-29.25,0
469294,-0.02,-0.06,0.98,3.2,-0.5,0.89,7.01,-3.99,-29.25,0
469308,-0.02,-0.06,0.98,3.7,-0.63,1.04,6.88,-4.01,-29.14,0
469319,-0.01,-0.06,0.98,4.28,-0.95,1.54,6.88,-4.01,-29.14,0
469333,-0.02,-0.07,0.98,3.78,-2.01,0.75,6.88,-4.01,-29.14,0
469345,-0.02,-0.07,0.98,3.14,-1.43,0.49,6.88,-4.01,-29.14,0
469357,-0.02,-0.07,0.98,2.07,-0.62,0.24,6.97,-3.88,-29.08,0
469368,-0.02,-0.06,0.98,1.91,-0.56,0.09,6.97,-3.88,-29.08,0
469380,-0.02,-0.06,0.98,1.92,-0.6,-0.01,6.97,-3.88,-29.08,0
469394,-0.02,-0.07,0.98,1.85,-0.96,-0.15,6.97,-3.88,-29.08,0
469405,-0.02,-0.06,0.98,1.73,-1.22,-0.29,7.0,-3.73,-29.06,0
469419,-0.02,-0.07,0.98,1.25,-1.23,-0.38,7.0,-3.73,-29.06,0
469431,-0.02,-0.06,0.98,0.97,-1.21,-0.42,7.0,-3.73,-29.06,0
469445,-0.02,-0.06,0.98,0.73,-1.03,-0.47,7.0,-3.73,-29.06,0
469456,-0.02,-0.06,0.98,0.7,-0.98,-0.42,7.03,-3.72,-29.2,0
469469,-0.02,-0.06,0.98,1.12,-1.13,-0.34,7.03,-3.72,-29.2,0
469480,-0.02,-0.06,0.98,1.4,-1.19,-0.2,7.03,-3.72,-29.2,0
469492,-0.02,-0.06,0.98,1.56,-1.21,-0.09,7.03,-3.72,-29.2,0
469505,-0.02,-0.06,0.98,1.8,-1.04,0.1,7.04,-3.72,-29.19,0
469517,-0.02,-0.06,0.98,1.85,-1.03,0.14,7.04,-3.72,-29.19,0
469531,-0.02,-0.06,0.98,1.68,-1.08,0.13,7.04,-3.72,-29.19,0
469542,-0.02,-0.06,0.98,1.58,-1.09,0.03,7.04,-3.72,-29.19,0
469555,-0.02,-0.06,0.98,1.5,-1.22,-0.07,7.06,-3.67,-29.38,0
469566,-0.02,-0.06,0.98,1.42,-1.22,-0.11,7.06,-3.67,-29.38,0
469578,-0.02,-0.06,0.98,1.39,-1.11,-0.15,7.06,-3.67,-29.38,0
469589,-0.02,-0.06,0.98,1.49,-1.01,-0.11,7.06,-3.67,-29.38,0
469601,-0.02,-0.06,0.98,1.61,-1.03,-0.04,6.98,-3.71,-29.17,0
469613,-0.02,-0.06,0.98,1.73,-1.02,0.07,6.98,-3.71,-29.17,0
469625,-0.02,-0.06,0.98,1.7,-1.04,0.17,6.98,-3.71,-29.17,0
469637,-0.02,-0.06,0.98,1.69,-1.06,0.19,6.98,-3.71,-29.17,0
469652,-0.02,-0.06,0.98,1.82,-1.18,0.1,6.88,-3.69,-29.23,0
469663,-0.02,-0.06,0.98,1.9,-1.27,0.06,6.88,-3.69,-29.23,0
469674,-0.02,-0.06,0.98,1.94,-1.3,0.09,6.88,-3.69,-29.23,0
469686,-0.02,-0.06,0.98,1.94,-1.38,0.13,6.88,-3.69,-29.23,0
469697,-0.02,-0.06,0.98,1.82,-1.37,0.08,6.88,-3.69,-29.23,0
469711,-0.02,-0.06,0.98,1.82,-1.24,0.04,6.87,-3.75,-29.13,0
469722,-0.02,-0.06,0.98,1.85,-1.14,0.13,6.87,-3.75,-29.13,0
469735,-0.02,-0.06,0.98,2.08,-0.95,0.36,6.87,-3.75,-29.13,0
469746,-0.02,-0.06,0.98,2.19,-0.86,0.44,6.87,-3.75,-29.13,0
469757,-0.02,-0.06,0.98,2.16,-0.89,0.36,6.92,-3.78,-29.26,0
469771,-0.02,-0.06,0.98,1.79,-0.92,0.03,6.92,-3.78,-29.26,0
469783,-0.02,-0.06,0.98,1.61,-1.1,-0.05,6.92,-3.78,-29.26,0
469796,-0.02,-0.06,0.98,1.37,-1.17,-0.15,6.92,-3.78,-29.26,0
469808,-0.02,-0.06,0.97,1.36,-1.02,-0.1,7.02,-3.78,-29.06,0
469820,-0.02,-0.06,0.97,1.44,-1.0,-0.07,7.02,-3.78,-29.06,0
469832,-0.02,-0.06,0.97,1.83,-1.18,-0.03,7.02,-3.78,-29.06,0
469844,-0.02,-0.06,0.97,2.05,-1.24,0.03,7.02,-3.78,-29.06,0
469857,-0.02,-0.06,0.98,1.98,-1.34,0.01,7.05,-3.79,-29.06,0
469868,-0.02,-0.06,0.98,1.85,-1.39,-0.11,7.05,-3.79,-29.06,0
469879,-0.02,-0.06,0.98,1.74,-1.28,-0.21,7.05,-3.79,-29.06,0
469890,-0.02,-0.06,0.98,1.69,-1.26,-0.1,7.05,-3.79,-29.06,0
469902,-0.02,-0.06,0.98,1.88,-1.14,-0.01,7.08,-3.79,-28.96,0
469914,-0.02,-0.06,0.98,2.07,-1.02,0.07,7.08,-3.79,-28.96,0
469926,-0.02,-0.06,0.98,2.15,-0.96,0.2,7.08,-3.79,-28.96,0
469938,-0.02,-0.07,0.98,2.13,-0.89,0.22,7.08,-3.79,-28.96,0
469953,-0.02,-0.06,0.98,1.88,-0.81,0.24,6.99,-3.71,-29.05,0
469964,-0.02,-0.06,0.98,1.76,-0.79,0.17,6.99,-3.71,-29.05,0
469976,-0.02,-0.06,0.98,1.75,-0.81,-0.01,6.99,-3.71,-29.05,0
469988,-0.02,-0.06,0.98,1.8,-0.98,-0.06,6.99,-3.71,-29.05,0
470001,-0.02,-0.06,0.98,1.78,-1.14,-0.06,6.96,-3.58,-28.96,0
470012,-0.02,-0.06,0.98,1.71,-1.17,-0.05,6.96,-3.58,-28.96,0
470024,-0.02,-0.06,0.98,1.58,-1.06,-0.17,6.96,-3.58,-28.96,0
470038,-0.02,-0.06,0.98,1.76,-0.91,-0.03,6.96,-3.58,-28.96,0
470051,-0.02,-0.06,0.98,1.94,-0.87,0.04,6.99,-3.5,-29.05,0
470063,-0.02,-0.06,0.98,1.76,-0.85,0.02,6.99,-3.5,-29.05,0
470075,-0.02,-0.06,0.98,1.62,-0.78,0.03,6.99,-3.5,-29.05,0
470087,-0.02,-0.06,0.98,1.41,-0.92,0.05,6.99,-3.5,-29.05,0
470100,-0.02,-0.06,0.98,1.64,-0.99,0.08,7.13,-3.56,-29.14,0
470111,-0.02,-0.06,0.98,1.99,-0.93,0.16,7.13,-3.56,-29.14,0
470123,-0.02,-0.06,0.98,2.33,-1.0,0.19,7.13,-3.56,-29.14,0
470134,-0.02,-0.06,0.98,2.37,-1.02,0.2,7.13,-3.56,-29.14,0
470145,-0.02,-0.06,0.98,2.21,-1.04,0.21,7.13,-3.56,-29.14,0
470159,-0.02,-0.06,0.98,1.88,-1.13,0.01,7.2,-3.64,-29.23,0
470170,-0.02,-0.06,0.98,1.81,-1.11,-0.02,7.2,-3.64,-29.23,0
470182,-0.02,-0.06,0.98,1.85,-1.08,0.14,7.2,-3.64,-29.23,0
470193,-0.02,-0.06,0.98,1.88,-1.05,0.19,7.2,-3.64,-29.23,0
470204,-0.02,-0.06,0.98,1.98,-0.98,0.23,7.19,-3.65,-29.32,0
470218,-0.02,-0.06,0.98,2.16,-0.7,0.31,7.19,-3.65,-29.32,0
470229,-0.02,-0.06,0.98,2.06,-0.76,0.23,7.19,-3.65,-29.32,0
470243,-0.02,-0.07,0.98,1.85,-0.98,0.07,7.19,-3.65,-29.32,0
470254,-0.02,-0.07,0.98,1.67,-1.17,-0.08,7.19,-3.65,-29.17,0
470267,-0.02,-0.07,0.98,1.55,-1.38,-0.28,7.19,-3.65,-29.17,0
470279,-0.02,-0.06,0.98,1.6,-1.33,-0.26,7.19,-3.65,-29.17,0
470290,-0.02,-0.06,0.98,1.72,-1.28,-0.15,7.19,-3.65,-29.17,0
470304,-0.02,-0.06,0.98,2.03,-1.08,0.05,7.12,-3.53,-29.15,0
470315,-0.02,-0.06,0.98,2.12,-1.0,0.16,7.12,-3.53,-29.15,0
470329,-0.02,-0.06,0.98,1.94,-1.05,0.11,7.12,-3.53,-29.15,0
470341,-0.02,-0.06,0.98,1.91,-1.17,0.02,7.12,-3.53,-29.15,0
470353,-0.02,-0.06,0.98,1.9,-1.53,-0.19,7.09,-3.51,-29.27,0
470365,-0.02,-0.07,0.98,1.79,-1.69,-0.23,7.09,-3.51,-29.27,0
470376,-0.02,-0.07,0.98,1.61,-1.71,-0.25,7.09,-3.51,-29.27,0
470388,-0.02,-0.07,0.98,1.25,-1.39,-0.32,7.09,-3.51,-29.27,0
470400,-0.02,-0.06,0.98,1.21,-1.3,-0.27,7.23,-3.51,-29.08,0
470412,-0.02,-0.06,0.98,1.36,-1.31,-0.23,7.23,-3.51,-29.08,0
470424,-0.02,-0.06,0.98,1.66,-1.44,-0.21,7.23,-3.51,-29.08,0
470436,-0.02,-0.06,0.98,1.75,-1.63,-0.21,7.23,-3.51,-29.08,0
470451,-0.02,-0.07,0.98,1.9,-1.78,-0.1,7.28,-3.53,-28.98,0
470463,-0.02,-0.07,0.98,1.95,-1.63,-0.05,7.28,-3.53,-28.98,0
470475,-0.02,-0.06,0.98,1.95,-1.24,0.06,7.28,-3.53,-28.98,0
470486,-0.02,-0.06,0.98,1.97,-1.15,0.14,7.28,-3.53,-28.98,0
470497,-0.02,-0.06,0.98,1.99,-1.07,0.2,7.28,-3.53,-28.98,0
470511,-0.02,-0.06,0.98,1.96,-1.15,0.33,7.3,-3.51,-28.83,0
470523,-0.02,-0.06,0.98,1.97,-1.14,0.4,7.3,-3.51,-28.83,0
470534,-0.02,-0.06,0.98,1.94,-1.26,0.46,7.3,-3.51,-28.83,0
470545,-0.02,-0.06,0.98,2.03,-1.31,0.35,7.3,-3.51,-28.83,0
470556,-0.02,-0.06,0.98,2.03,-1.29,0.22,7.26,-3.63,-28.96,0
470570,-0.02,-0.07,0.98,1.89,-1.47,-0.19,7.26,-3.63,-28.96,0
470582,-0.02,-0.07,0.98,1.76,-1.54,-0.31,7.26,-3.63,-28.96,0
470596,-0.02,-0.07,0.98,1.19,-1.47,-0.53,7.26,-3.63,-28.96,0
470607,-0.02,-0.07,0.98,1.04,-1.36,-0.55,7.25,-3.55,-29.04,0
470620,-0.02,-0.06,0.98,1.11,-1.11,-0.32,7.25,-3.55,-29.04,0
470631,-0.02,-0.06,0.98,1.43,-1.05,-0.13,7.25,-3.55,-29.04,0
470643,-0.02,-0.06,0.98,1.65,-0.92,0.05,7.25,-3.55,-29.04,0
470656,-0.02,-0.06,0.98,1.63,-0.77,0.16,7.23,-3.51,-28.94,0
470668,-0.02,-0.06,0.98,1.6,-0.83,0.13,7.23,-3.51,-28.94,0
470682,-0.02,-0.06,0.98,1.55,-1.22,0.08,7.23,-3.51,-28.94,0
470693,-0.02,-0.06,0.98,1.59,-1.37,0.07,7.23,-3.51,-28.94,0
470706,-0.02,-0.06,0.98,1.72,-1.38,0.01,7.19,-3.59,-28.95,0
470717,-0.02,-0.07,0.98,1.83,-1.19,0.08,7.19,-3.59,-28.95,0
470728,-0.02,-0.07,0.98,1.77,-1.12,0.15,7.19,-3.59,-28.95,0
470740,-0.02,-0.06,0.98,1.74,-0.96,0.16,7.19,-3.59,-28.95,0
470752,-0.02,-0.06,0.98,1.76,-0.95,0.13,7.25,-3.69,-28.88,0
470763,-0.02,-0.06,0.98,1.78,-1.05,0.07,7.25,-3.69,-28.88,0
470776,-0.02,-0.06,0.98,2.0,-1.14,-0.01,7.25,-3.69,-28.88,0
470787,-0.02,-0.06,0.98,2.14,-1.11,0.09,7.25,-3.69,-28.88,0
470799,-0.02,-0.07,0.98,2.21,-1.02,0.19,7.3,-3.78,-28.98,0
470811,-0.02,-0.06,0.98,2.15,-0.85,0.34,7.3,-3.78,-28.98,0
470823,-0.02,-0.06,0.98,2.25,-0.71,0.41,7.3,-3.78,-28.98,0
470836,-0.02,-0.06,0.98,2.4,-0.89,0.62,7.3,-3.78,-28.98,0
470847,-0.02,-0.06,0.98,2.39,-1.03,0.57,7.3,-3.78,-28.98,0
470858,-0.02,-0.07,0.98,2.25,-1.05,0.45,7.24,-3.85,-29.13,0
470869,-0.02,-0.07,0.98,1.68,-1.11,0.09,7.24,-3.85,-29.13,0
470880,-0.02,-0.06,0.98,1.59,-1.24,-0.09,7.24,-3.85,-29.13,0
470892,-0.02,-0.07,0.98,1.56,-1.25,-0.13,7.24,-3.85,-29.13,0
470905,-0.02,-0.07,0.98,1.71,-1.35,-0.0,7.28,-3.88,-29.1,0
470917,-0.02,-0.06,0.98,1.78,-1.24,0.11,7.28,-3.88,-29.1,0
470931,-0.02,-0.06,0.98,2.02,-0.86,0.15,7.28,-3.88,-29.1,0
470943,-0.02,-0.07,0.98,2.14,-0.82,0.22,7.28,-3.88,-29.1,0
470955,-0.02,-0.06,0.98,2.28,-0.89,0.22,7.29,-3.91,-29.38,0
470966,-0.02,-0.06,0.98,2.01,-1.0,0.19,7.29,-3.91,-29.38,0
470978,-0.02,-0.06,0.98,1.94,-1.13,-0.03,7.29,-3.91,-29.38,0
470989,-0.02,-0.06,0.98,1.89,-1.32,-0.26,7.29,-3.91,-29.38,0
471001,-0.02,-0.07,0.98,1.6,-1.34,-0.3,7.3,-3.83,-29.31,0
471013,-0.02,-0.07,0.98,1.41,-1.39,-0.37,7.3,-3.83,-29.31,0
471025,-0.02,-0.06,0.98,1.36,-1.12,-0.21,7.3,-3.83,-29.31,0
471036,-0.02,-0.06,0.98,1.55,-1.0,-0.11,7.3,-3.83,-29.31,0
471048,-0.02,-0.06,0.98,1.81,-1.03,-0.04,7.26,-3.75,-29.18,0
471060,-0.02,-0.06,0.98,2.13,-1.12,-0.01,7.26,-3.75,-29.18,0
471071,-0.02,-0.07,0.98,2.1,-1.08,0.01,7.26,-3.75,-29.18,0
471082,-0.02,-0.07,0.98,1.92,-1.09,-0.03,7.26,-3.75,-29.18,0
471094,-0.02,-0.07,0.98,1.6,-1.03,-0.07,7.26,-3.75,-29.18,0
471105,-0.02,-0.06,0.98,1.46,-0.95,-0.08,7.31,-3.75,-29.02,0
471118,-0.02,-0.06,0.98,1.61,-0.96,-0.12,7.31,-3.75,-29.02,0
471129,-0.02,-0.06,0.98,1.86,-0.98,-0.03,7.31,-3.75,-29.02,0
471141,-0.02,-0.06,0.98,2.02,-1.07,0.01,7.31,-3.75,-29.02,0
471154,-0.02,-0.07,0.98,2.07,-1.11,0.02,7.24,-3.73,-28.97,0
471166,-0.02,-0.07,0.98,1.99,-1.0,-0.01,7.24,-3.73,-28.97,0
471180,-0.02,-0.07,0.98,1.84,-0.99,-0.12,7.24,-3.73,-28.97,0
471192,-0.02,-0.07,0.98,1.73,-1.06,-0.14,7.24,-3.73,-28.97,0
471204,-0.02,-0.07,0.98,1.2,-1.28,-0.23,7.23,-3.62,-28.93,0
471215,-0.02,-0.06,0.98,1.13,-1.36,-0.33,7.23,-3.62,-28.93,0
471227,-0.02,-0.06,0.98,1.33,-1.25,-0.31,7.23,-3.62,-28.93,0
471238,-0.02,-0.06,0.98,1.74,-1.11,-0.02,7.23,-3.62,-28.93,0
471250,-0.02,-0.06,0.98,1.87,-1.07,0.13,7.17,-3.57,-28.85,0
471261,-0.02,-0.06,0.98,2.03,-0.9,0.11,7.17,-3.57,-28.85,0
471274,-0.02,-0.06,0.97,1.61,-1.11,-0.03,7.17,-3.57,-28.85,0
471286,-0.02,-0.06,0.97,1.52,-1.31,-0.11,7.17,-3.57,-28.85,0
471296,-0.02,-0.06,0.98,1.47,-1.45,-0.16,7.17,-3.57,-28.85,0
471309,-0.02,-0.06,0.98,1.48,-1.46,-0.09,7.24,-3.52,-28.81,0
471321,-0.02,-0.06,0.98,1.61,-1.23,-0.06,7.24,-3.52,-28.81,0
471334,-0.02,-0.07,0.98,1.87,-0.95,0.13,7.24,-3.52,-28.81,0
471345,-0.02,-0.07,0.98,1.94,-0.97,0.19,7.24,-3.52,-28.81,0
471356,-0.02,-0.07,0.98,2.0,-1.01,0.2,7.15,-3.54,-28.89,0
471367,-0.02,-0.07,0.98,1.8,-0.96,0.18,7.15,-3.54,-28.89,0
471378,-0.02,-0.06,0.98,1.7,-1.02,0.06,7.15,-3.54,-28.89,0
471389,-0.02,-0.06,0.98,1.7,-1.12,-0.06,7.15,-3.54,-28.89,0
471403,-0.02,-0.06,0.98,1.87,-1.3,0.01,7.06,-3.55,-28.87,0
471414,-0.02,-0.06,0.98,1.94,-1.28,0.08,7.06,-3.55,-28.87,0
471425,-0.02,-0.06,0.98,1.98,-1.15,0.09,7.06,-3.55,-28.87,0
471437,-0.02,-0.07,0.98,1.74,-1.2,0.07,7.06,-3.55,-28.87,0
471448,-0.02,-0.07,0.98,1.75,-1.21,-0.01,7.09,-3.49,-28.99,0
471459,-0.02,-0.07,0.98,1.59,-1.13,0.09,7.09,-3.49,-28.99,0
471472,-0.02,-0.06,0.98,1.74,-0.98,0.18,7.09,-3.49,-28.99,0
471483,-0.02,-0.06,0.98,2.05,-0.9,0.3,7.09,-3.49,-28.99,0
471498,-0.02,-0.07,0.98,2.27,-0.8,0.54,7.12,-3.57,-29.13,0
471510,-0.02,-0.07,0.98,2.26,-0.83,0.5,7.12,-3.57,-29.13,0
471524,-0.02,-0.06,0.98,1.96,-0.77,0.35,7.12,-3.57,-29.13,0
471535,-0.02,-0.06,0.98,1.9,-0.87,0.29,7.12,-3.57,-29.13,0
471546,-0.02,-0.06,0.98,1.86,-1.07,0.21,7.12,-3.57,-29.13,0
471559,-0.02,-0.06,0.98,1.94,-1.25,-0.0,7.22,-3.53,-29.21,0
471571,-0.02,-0.07,0.98,1.93,-1.41,-0.12,7.22,-3.53,-29.21,0
471583,-0.02,-0.07,0.98,1.81,-1.67,-0.2,7.22,-3.53,-29.21,0
471595,-0.02,-0.07,0.98,1.6,-1.6,-0.25,7.22,-3.53,-29.21,0
471606,-0.02,-0.06,0.98,1.41,-1.49,-0.35,7.24,-3.56,-29.01,0
471618,-0.02,-0.06,0.98,1.37,-1.19,-0.37,7.24,-3.56,-29.01,0
471630,-0.02,-0.07,0.98,1.5,-1.15,-0.18,7.24,-3.56,-29.01,0
471644,-0.02,-0.06,0.98,1.83,-1.05,0.07,7.24,-3.56,-29.01,0
471655,-0.02,-0.06,0.98,2.07,-0.97,0.13,7.35,-3.49,-29.17,0
471668,-0.02,-0.07,0.98,2.2,-1.02,0.18,7.35,-3.49,-29.17,0
471679,-0.02,-0.07,0.98,2.09,-1.22,0.11,7.35,-3.49,-29.17,0
471690,-0.02,-0.07,0.98,1.9,-1.31,0.06,7.35,-3.49,-29.17,0
471704,-0.02,-0.06,0.98,1.45,-1.37,-0.07,7.42,-3.44,-29.03,0
471715,-0.02,-0.06,0.98,1.54,-1.39,-0.12,7.42,-3.44,-29.03,0
471726,-0.02,-0.06,0.98,1.82,-1.36,-0.09,7.42,-3.44,-29.03,0
471738,-0.02,-0.07,0.98,2.23,-1.16,0.09,7.42,-3.44,-29.03,0
471749,-0.02,-0.07,0.98,2.21,-1.1,0.14,7.42,-3.48,-28.97,0
471762,-0.02,-0.07,0.98,1.95,-0.89,0.2,7.42,-3.48,-28.97,0
471773,-0.02,-0.07,0.98,1.76,-0.77,0.13,7.42,-3.48,-28.97,0
471785,-0.02,-0.07,0.98,1.6,-0.77,0.08,7.42,-3.48,-28.97,0
471799,-0.02,-0.07,0.98,1.45,-0.89,-0.11,7.38,-3.5,-29.0,0
471811,-0.02,-0.07,0.98,1.35,-0.94,-0.24,7.38,-3.5,-29.0,0
471824,-0.02,-0.07,0.98,1.23,-1.1,-0.31,7.38,-3.5,-29.0,0
471835,-0.02,-0.07,0.98,1.2,-1.18,-0.23,7.38,-3.5,-29.0,0
471847,-0.02,-0.06,0.98,1.23,-1.18,-0.19,7.32,-3.42,-29.07,0
471858,-0.02,-0.07,0.98,1.36,-1.09,-0.14,7.32,-3.42,-29.07,0
471870,-0.02,-0.07,0.98,1.45,-1.12,-0.12,7.32,-3.42,-29.07,0
471884,-0.02,-0.06,0.98,1.41,-1.34,-0.03,7.32,-3.42,-29.07,0
471895,-0.02,-0.07,0.98,1.59,-1.23,-0.04,7.32,-3.42,-29.07,0
471908,-0.02,-0.06,0.98,1.93,-1.04,0.07,7.21,-3.46,-28.91,0
471919,-0.02,-0.06,0.99,2.06,-0.88,0.15,7.21,-3.46,-28.91,0
471931,-0.02,-0.07,0.98,2.24,-0.66,0.21,7.21,-3.46,-28.91,0
471944,-0.02,-0.07,0.97,1.84,-0.77,0.19,7.21,-3.46,-28.91,0
471955,-0.02,-0.06,0.97,1.69,-0.88,0.07,7.12,-3.51,-29.01,0
471966,-0.02,-0.06,0.98,1.64,-1.01,0.01,7.12,-3.51,-29.01,0
471977,-0.02,-0.06,0.98,1.96,-1.31,-0.05,7.12,-3.51,-29.01,0
471988,-0.02,-0.07,0.98,2.23,-1.37,-0.02,7.12,-3.51,-29.01,0
471999,-0.02,-0.07,0.98,2.25,-1.33,0.08,7.14,-3.44,-28.88,0
472013,-0.02,-0.07,0.98,1.72,-1.16,0.08,7.14,-3.44,-28.88,0
472025,-0.02,-0.07,0.98,1.57,-1.06,0.09,7.14,-3.44,-28.88,0
472038,-0.02,-0.06,0.98,1.66,-1.0,0.08,7.14,-3.44,-28.88,0
472050,-0.02,-0.06,0.98,1.79,-1.07,0.02,7.06,-3.37,-29.04,0
472060,-0.02,-0.07,0.98,1.92,-1.2,-0.02,7.06,-3.37,-29.04,0
472071,-0.02,-0.07,0.97,1.61,-1.39,-0.13,7.06,-3.37,-29.04,0
472082,-0.02,-0.07,0.98,1.49,-1.29,-0.19,7.06,-3.37,-29.04,0
472093,-0.02,-0.06,0.98,1.58,-1.03,-0.12,7.06,-3.37,-29.04,0
472104,-0.02,-0.06,0.98,1.74,-0.84,-0.02,7.13,-3.3,-29.11,0
472116,-0.02,-0.07,0.98,2.2,-1.05,0.08,7.13,-3.3,-29.11,0
472128,-0.02,-0.07,0.98,2.21,-1.1,0.13,7.13,-3.3,-29.11,0
472141,-0.02,-0.07,0.97,1.68,-1.21,0.01,7.13,-3.3,-29.11,0
472153,-0.02,-0.07,0.98,1.61,-1.19,-0.02,7.15,-3.25,-29.11,0
472165,-0.02,-0.06,0.98,1.67,-1.01,0.03,7.15,-3.25,-29.11,0
472177,-0.02,-0.07,0.98,1.92,-1.02,-0.0,7.15,-3.25,-29.11,0
472189,-0.02,-0.07,0.98,2.05,-1.16,0.01,7.15,-3.25,-29.11,0
472202,-0.02,-0.07,0.98,1.78,-1.34,-0.13,7.12,-3.3,-29.31,0
472214,-0.02,-0.07,0.98,1.59,-1.24,-0.18,7.12,-3.3,-29.31,0
472228,-0.02,-0.07,0.98,1.4,-1.04,-0.12,7.12,-3.3,-29.31,0
472239,-0.02,-0.07,0.98,1.48,-0.98,-0.07,7.12,-3.3,-29.31,0
472253,-0.02,-0.07,0.97,1.6,-0.96,0.12,7.05,-3.27,-29.32,0
472265,-0.02,-0.07,0.98,1.72,-1.06,0.09,7.05,-3.27,-29.32,0
472275,-0.02,-0.07,0.98,1.72,-1.12,0.07,7.05,-3.27,-29.32,0
472286,-0.02,-0.07,0.98,1.66,-1.0,0.13,7.05,-3.27,-29.32,0
472297,-0.02,-0.07,0.98,1.76,-0.91,0.11,6.92,-3.34,-29.42,0
472309,-0.02,-0.07,0.98,1.77,-0.94,0.16,6.92,-3.34,-29.42,0
472320,-0.02,-0.07,0.97,1.8,-1.25,0.05,6.92,-3.34,-29.42,0
472331,-0.02,-0.07,0.98,1.91,-1.44,0.03,6.92,-3.34,-29.42,0
472343,-0.02,-0.07,0.98,1.98,-1.49,0.09,6.92,-3.34,-29.42,0
472356,-0.02,-0.07,0.98,2.07,-1.07,0.13,6.96,-3.24,-29.52,0
472368,-0.02,-0.07,0.98,2.11,-0.78,0.19,6.96,-3.24,-29.52,0
472382,-0.02,-0.07,0.98,1.82,-0.69,0.14,6.96,-3.24,-29.52,0
472393,-0.02,-0.07,0.98,1.57,-0.82,0.04,6.96,-3.24,-29.52,0
472405,-0.02,-0.07,0.98,1.36,-1.02,-0.07,6.93,-3.28,-29.25,0
472417,-0.02,-0.06,0.98,1.04,-1.19,-0.24,6.93,-3.28,-29.25,0
472429,-0.02,-0.06,0.98,0.93,-1.15,-0.32,6.93,-3.28,-29.25,0
472440,-0.02,-0.06,0.98,1.21,-1.03,-0.26,6.93,-3.28,-29.25,0
472452,-0.02,-0.06,0.97,1.18,-1.23,-0.12,6.97,-3.36,-29.39,0
472463,-0.02,-0.06,0.98,1.41,-1.28,-0.11,6.97,-3.36,-29.39,0
472476,-0.02,-0.06,0.98,1.82,-1.1,0.02,6.97,-3.36,-29.39,0
472487,-0.02,-0.07,0.98,2.05,-1.09,0.07,6.97,-3.36,-29.39,0
472498,-0.02,-0.07,0.98,2.23,-1.04,0.09,6.95,-3.37,-29.51,0
472509,-0.02,-0.07,0.98,1.91,-0.75,0.2,6.95,-3.37,-29.51,0
472520,-0.02,-0.07,0.97,1.64,-0.68,0.13,6.95,-3.37,-29.51,0
472532,-0.02,-0.06,0.97,1.57,-0.73,0.1,6.95,-3.37,-29.51,0
472543,-0.02,-0.06,0.97,1.8,-1.21,0.06,6.95,-3.37,-29.51,0
472555,-0.02,-0.06,0.98,2.04,-1.4,0.03,7.02,-3.34,-29.47,0
472567,-0.02,-0.07,0.98,2.13,-1.41,0.02,7.02,-3.34,-29.47,0
472579,-0.02,-0.07,0.98,1.97,-1.11,0.12,7.02,-3.34,-29.47,0
472591,-0.02,-0.07,0.98,1.86,-0.89,0.16,7.02,-3.34,-29.47,0
472602,-0.02,-0.06,0.98,1.75,-0.72,0.14,6.94,-3.34,-29.36,0
472614,-0.02,-0.07,0.98,1.62,-0.81,0.01,6.94,-3.34,-29.36,0
472625,-0.02,-0.06,0.98,1.53,-1.08,-0.06,6.94,-3.34,-29.36,0
472639,-0.02,-0.06,0.98,1.39,-1.46,-0.14,6.94,-3.34,-29.36,0
472650,-0.02,-0.06,0.98,1.49,-1.48,-0.13,6.89,-3.38,-29.3,0
472663,-0.02,-0.06,0.98,1.97,-1.27,-0.0,6.89,-3.38,-29.3,0
472675,-0.02,-0.07,0.98,2.18,-1.15,0.06,6.89,-3.38,-29.3,0
472685,-0.02,-0.07,0.98,2.16,-1.14,0.12,6.89,-3.38,-29.3,0
472696,-0.02,-0.07,0.98,2.06,-1.14,0.17,6.95,-3.4,-29.3,0
472708,-0.02,-0.07,0.98,1.85,-0.98,0.21,6.95,-3.4,-29.3,0
472720,-0.02,-0.06,0.98,1.78,-0.91,0.14,6.95,-3.4,-29.3,0
472732,-0.02,-0.06,0.98,2.11,-0.9,0.06,6.95,-3.4,-29.3,0
472743,-0.02,-0.07,0.98,2.25,-1.05,0.15,6.95,-3.4,-29.3,0
472754,-0.02,-0.07,0.98,2.24,-1.25,0.2,6.92,-3.37,-29.18,0
472768,-0.02,-0.07,0.98,1.77,-1.34,0.09,6.92,-3.37,-29.18,0
472780,-0.02,-0.07,0.98,1.67,-1.18,0.06,6.92,-3.37,-29.18,0
472792,-0.02,-0.06,0.98,1.87,-0.79,0.12,6.92,-3.37,-29.18,0
472805,-0.02,-0.07,0.98,2.04,-0.78,0.13,6.91,-3.31,-28.96,0
472816,-0.02,-0.07,0.98,2.14,-0.78,0.18,6.91,-3.31,-28.96,0
472829,-0.02,-0.07,0.98,1.97,-0.94,0.19,6.91,-3.31,-28.96,0
472840,-0.02,-0.07,0.98,1.82,-1.04,0.09,6.91,-3.31,-28.96,0
472853,-0.02,-0.07,0.98,1.7,-1.28,-0.07,6.9,-3.25,-28.74,0
472864,-0.02,-0.07,0.98,1.71,-1.28,-0.11,6.9,-3.25,-28.74,0
472875,-0.02,-0.07,0.98,1.77,-1.24,-0.09,6.9,-3.25,-28.74,0
472887,-0.02,-0.07,0.98,1.98,-1.05,0.08,6.9,-3.25,-28.74,0
472899,-0.02,-0.07,0.98,2.07,-0.86,0.17,6.92,-3.35,-28.78,0
472910,-0.02,-0.07,0.98,2.17,-0.65,0.31,6.92,-3.35,-28.78,0
472923,-0.02,-0.07,0.98,2.32,-0.51,0.37,6.92,-3.35,-28.78,0
472934,-0.02,-0.07,0.98,2.17,-0.58,0.36,6.92,-3.35,-28.78,0
472946,-0.02,-0.07,0.98,2.03,-0.72,0.25,6.98,-3.42,-28.95,0
472958,-0.02,-0.07,0.98,1.86,-0.97,0.06,6.98,-3.42,-28.95,0
472970,-0.02,-0.07,0.98,1.84,-0.93,0.05,6.98,-3.42,-28.95,0
472983,-0.02,-0.07,0.98,1.88,-0.95,-0.04,6.98,-3.42,-28.95,0
472996,-0.02,-0.07,0.98,1.85,-0.96,-0.01,6.98,-3.42,-29.12,0
473008,-0.02,-0.07,0.98,1.56,-0.95,-0.03,6.98,-3.42,-29.12,0
473020,-0.02,-0.07,0.98,1.34,-0.9,-0.1,6.98,-3.42,-29.12,0
473034,-0.02,-0.06,0.98,1.43,-0.65,-0.01,6.98,-3.42,-29.12,0
473046,-0.02,-0.06,0.98,1.69,-0.59,0.03,6.93,-3.34,-29.27,0
473058,-0.02,-0.06,0.98,2.31,-0.63,0.23,6.93,-3.34,-29.27,0
473070,-0.02,-0.07,0.98,2.43,-0.64,0.3,6.93,-3.34,-29.27,0
473082,-0.02,-0.07,0.98,2.31,-0.73,0.33,6.93,-3.34,-29.27,0
473093,-0.02,-0.07,0.98,1.82,-0.82,0.2,6.93,-3.34,-29.27,0
473105,-0.02,-0.07,0.98,1.66,-0.85,0.11,6.89,-3.26,-29.18,0
473116,-0.02,-0.07,0.98,1.69,-0.91,0.05,6.89,-3.26,-29.18,0
473129,-0.02,-0.07,0.98,2.03,-1.0,0.13,6.89,-3.26,-29.18,0
473140,-0.02,-0.07,0.98,2.13,-0.95,0.21,6.89,-3.26,-29.18,0
473152,-0.02,-0.07,0.98,2.2,-0.92,0.22,6.96,-3.23,-29.45,0
473164,-0.02,-0.07,0.98,2.05,-0.94,-0.0,6.96,-3.23,-29.45,0
473176,-0.02,-0.07,0.98,1.86,-0.94,-0.07,6.96,-3.23,-29.45,0
473189,-0.02,-0.07,0.98,1.53,-1.01,-0.14,6.96,-3.23,-29.45,0
473201,-0.02,-0.07,0.98,1.53,-1.06,-0.12,6.93,-3.33,-29.35,0
473214,-0.02,-0.07,0.98,1.68,-1.05,-0.03,6.93,-3.33,-29.35,0
473226,-0.02,-0.07,0.98,1.94,-1.13,0.01,6.93,-3.33,-29.35,0
473239,-0.02,-0.07,0.98,2.08,-1.13,0.09,6.93,-3.33,-29.35,0
473251,-0.02,-0.07,0.98,2.0,-1.2,0.05,6.98,-3.4,-29.42,0
473263,-0.02,-0.07,0.98,1.92,-1.3,-0.05,6.98,-3.4,-29.42,0
473275,-0.02,-0.07,0.98,1.82,-1.2,-0.06,6.98,-3.4,-29.42,0
473287,-0.02,-0.07,0.98,1.82,-1.18,-0.02,6.98,-3.4,-29.42,0
473299,-0.02,-0.07,0.98,1.93,-1.11,-0.13,7.04,-3.49,-29.46,0
473310,-0.02,-0.07,0.98,2.03,-1.1,-0.12,7.04,-3.49,-29.46,0
473322,-0.02,-0.07,0.98,2.08,-1.29,-0.14,7.04,-3.49,-29.46,0
473333,-0.02,-0.07,0.98,2.1,-1.51,-0.14,7.04,-3.49,-29.46,0
473346,-0.02,-0.07,0.98,2.03,-1.38,-0.09,7.15,-3.58,-29.48,0
473357,-0.02,-0.07,0.98,1.96,-1.25,-0.05,7.15,-3.58,-29.48,0
473370,-0.02,-0.07,0.98,1.72,-1.01,-0.02,7.15,-3.58,-29.48,0
473382,-0.02,-0.07,0.98,1.61,-0.98,-0.03,7.15,-3.58,-29.48,0
473396,-0.02,-0.07,0.98,1.63,-1.22,-0.15,7.28,-3.72,-29.51,0
473408,-0.02,-0.07,0.98,1.78,-1.37,-0.21,7.28,-3.72,-29.51,0
473421,-0.02,-0.07,0.98,1.89,-1.4,-0.13,7.28,-3.72,-29.51,0
473433,-0.02,-0.07,0.98,1.81,-1.4,-0.14,7.28,-3.72,-29.51,0
473447,-0.02,-0.07,0.98,1.61,-1.3,-0.26,7.19,-3.83,-29.6,0
473459,-0.02,-0.07,0.98,1.55,-1.37,-0.28,7.19,-3.83,-29.6,0
473471,-0.02,-0.07,0.98,1.6,-1.5,-0.28,7.19,-3.83,-29.6,0
473482,-0.02,-0.07,0.98,1.56,-1.49,-0.23,7.19,-3.83,-29.6,0
473495,-0.02,-0.07,0.98,1.58,-1.38,-0.19,7.19,-3.89,-29.6,0
473507,-0.02,-0.07,0.98,1.71,-0.86,0.07,7.19,-3.89,-29.6,0
473519,-0.02,-0.07,0.98,1.79,-0.7,0.15,7.19,-3.89,-29.6,0
473532,-0.02,-0.07,0.98,1.85,-0.85,0.23,7.19,-3.89,-29.6,0
473543,-0.02,-0.07,0.98,1.72,-1.12,0.14,7.19,-3.89,-29.6,0
473554,-0.02,-0.07,0.98,1.57,-1.41,-0.01,7.08,-3.74,-29.9,0
473565,-0.02,-0.07,0.98,1.52,-1.62,-0.12,7.08,-3.74,-29.9,0
473576,-0.02,-0.07,0.98,1.7,-1.44,-0.04,7.08,-3.74,-29.9,0
473587,-0.02,-0.07,0.98,1.87,-1.21,0.08,7.08,-3.74,-29.9,0
473598,-0.02,-0.07,0.98,1.99,-1.09,0.13,7.12,-3.73,-29.71,0
473610,-0.02,-0.07,0.98,1.87,-0.96,0.15,7.12,-3.73,-29.71,0
473622,-0.02,-0.07,0.97,1.61,-0.96,0.14,7.12,-3.73,-29.71,0
473636,-0.02,-0.07,0.98,1.36,-1.03,0.01,7.12,-3.73,-29.71,0
473647,-0.02,-0.07,0.98,1.35,-0.94,-0.07,7.08,-3.69,-29.79,0
473660,-0.02,-0.07,0.98,1.52,-1.04,-0.16,7.08,-3.69,-29.79,0
473671,-0.02,-0.07,0.98,1.57,-1.12,-0.1,7.08,-3.69,-29.79,0
473683,-0.02,-0.07,0.98,1.59,-1.17,-0.06,7.08,-3.69,-29.79,0
473697,-0.02,-0.07,0.98,1.55,-1.27,-0.06,7.09,-3.85,-29.8,0
473708,-0.02,-0.07,0.98,1.49,-1.26,-0.05,7.09,-3.85,-29.8,0
473721,-0.02,-0.07,0.98,1.54,-0.94,0.04,7.09,-3.85,-29.8,0
473732,-0.02,-0.07,0.98,1.74,-0.89,0.07,7.09,-3.85,-29.8,0
473744,-0.02,-0.07,0.98,1.98,-0.9,0.08,7.12,-3.83,-29.73,0
473756,-0.02,-0.07,0.98,2.22,-0.92,0.22,7.12,-3.83,-29.73,0
473768,-0.02,-0.07,0.98,2.1,-0.93,0.21,7.12,-3.83,-29.73,0
473782,-0.02,-0.07,0.98,1.75,-0.88,0.09,7.12,-3.83,-29.73,0
473794,-0.02,-0.07,0.98,1.61,-0.9,0.04,7.12,-3.88,-29.85,0
473806,-0.02,-0.07,0.98,1.75,-0.98,0.0,7.12,-3.88,-29.85,0
473817,-0.02,-0.07,0.98,1.91,-0.93,0.02,7.12,-3.88,-29.85,0
473829,-0.02,-0.07,0.98,2.06,-1.01,0.09,7.12,-3.88,-29.85,0
473839,-0.02,-0.07,0.98,2.13,-1.19,0.17,7.12,-3.88,-29.85,0
473852,-0.02,-0.07,0.98,2.06,-1.35,0.15,7.25,-3.85,-30.0,0
473863,-0.02,-0.07,0.98,1.89,-1.38,0.11,7.25,-3.85,-30.0,0
473876,-0.02,-0.07,0.98,1.66,-1.41,-0.01,7.25,-3.85,-30.0,0
473888,-0.02,-0.07,0.98,1.75,-1.29,0.05,7.25,-3.85,-30.0,0
473899,-0.02,-0.07,0.98,1.85,-1.23,0.12,7.22,-3.91,-29.73,0
473911,-0.02,-0.07,0.98,2.05,-1.25,0.1,7.22,-3.91,-29.73,0
473923,-0.02,-0.07,0.98,2.03,-1.16,0.09,7.22,-3.91,-29.73,0
473936,-0.02,-0.07,0.98,1.83,-1.16,0.05,7.22,-3.91,-29.73,0
473947,-0.02,-0.07,0.98,1.77,-1.18,0.04,7.24,-3.81,-29.81,0
473959,-0.02,-0.07,0.98,1.71,-1.19,0.06,7.24,-3.81,-29.81,0
473970,-0.02,-0.07,0.98,1.72,-1.17,0.09,7.24,-3.81,-29.81,0
473982,-0.02,-0.07,0.98,1.84,-1.12,3.5,7.24,-3.81,-29.81,0
473997,-0.02,-0.07,0.98,2.18,-1.05,2.27,7.2,-3.92,-29.69,0
474009,-0.02,-0.07,0.98,2.09,-1.1,1.81,7.2,-3.92,-29.69,0
474022,-0.02,-0.07,0.98,1.73,-1.03,1.12,7.2,-3.92,-29.69,0
474034,-0.02,-0.07,0.98,1.62,-0.95,0.87,7.2,-3.92,-29.69,0
474048,-0.02,-0.07,0.98,1.74,-0.83,0.59,7.23,-3.93,-29.64,0
474059,-0.02,-0.07,0.98,1.9,-0.84,0.54,7.23,-3.93,-29.64,0
474070,-0.02,-0.07,0.98,1.95,-0.81,0.46,7.23,-3.93,-29.64,0
474081,-0.02,-0.07,0.98,1.87,-0.88,0.29,7.23,-3.93,-29.64,0
474094,-0.02,-0.07,0.98,1.71,-1.06,0.21,7.29,-3.93,-29.77,0
474106,-0.02,-0.07,0.98,1.51,-1.19,0.1,7.29,-3.93,-29.77,0
474118,-0.02,-0.07,0.98,1.42,-1.1,0.06,7.29,-3.93,-29.77,0
474130,-0.02,-0.07,0.98,1.47,-1.02,0.06,7.29,-3.93,-29.77,0
474142,-0.02,-0.07,0.98,1.67,-0.94,0.08,7.29,-3.93,-29.77,0
474153,-0.02,-0.07,0.98,1.68,-0.85,0.18,7.33,-4.0,-29.9,0
474164,-0.02,-0.07,0.98,1.63,-0.81,0.21,7.33,-4.0,-29.9,0
474175,-0.02,-0.07,0.98,1.58,-0.81,0.23,7.33,-4.0,-29.9,0
474186,-0.02,-0.07,0.98,1.62,-0.87,0.26,7.33,-4.0,-29.9,0
474197,-0.02,-0.07,0.98,1.7,-1.03,0.27,7.35,-3.98,-29.83,0
474211,-0.02,-0.07,0.98,2.03,-1.11,0.26,7.35,-3.98,-29.83,0
474222,-0.02,-0.07,0.98,2.15,-1.02,0.31,7.35,-3.98,-29.83,0
474236,-0.02,-0.07,0.98,2.15,-0.92,0.34,7.35,-3.98,-29.83,0
474247,-0.02,-0.07,0.98,2.02,-0.85,0.27,7.31,-3.92,-29.8,0
474259,-0.02,-0.07,0.98,1.78,-0.88,0.17,7.31,-3.92,-29.8,0
474271,-0.02,-0.07,0.98,1.51,-1.17,-0.11,7.31,-3.92,-29.8,0
474282,-0.02,-0.07,0.98,1.5,-1.31,-0.17,7.31,-3.92,-29.8,0
474295,-0.02,-0.07,0.98,1.51,-1.33,-0.21,7.29,-3.92,-29.78,0
474306,-0.02,-0.07,0.98,1.51,-1.35,-0.26,7.29,-3.92,-29.78,0
474318,-0.02,-0.07,0.98,1.51,-1.02,-0.12,7.29,-3.92,-29.78,0
474332,-0.02,-0.07,0.98,1.59,-0.85,0.08,7.29,-3.92,-29.78,0
474344,-0.02,-0.07,0.98,1.68,-0.82,0.11,7.31,-3.92,-29.96,0
474355,-0.02,-0.07,0.98,1.81,-0.98,0.22,7.31,-3.92,-29.96,0
474366,-0.02,-0.07,0.98,1.92,-1.05,0.2,7.31,-3.92,-29.96,0
474378,-0.02,-0.07,0.98,2.05,-1.11,0.21,7.31,-3.92,-29.96,0
474392,-0.02,-0.07,0.98,2.3,-1.08,0.21,7.31,-3.92,-29.96,0
474403,-0.02,-0.07,0.98,2.36,-1.11,0.16,7.33,-4.03,-30.07,0
474415,-0.02,-0.07,0.98,2.22,-1.11,-0.0,7.33,-4.03,-30.07,0
474427,-0.02,-0.07,0.98,1.93,-1.1,-0.07,7.33,-4.03,-30.07,0
474439,-0.02,-0.07,0.98,1.65,-1.03,-0.14,7.33,-4.03,-30.07,0
474452,-0.02,-0.07,0.98,1.52,-0.82,-0.19,7.36,-3.93,-29.92,0
474464,-0.02,-0.07,0.98,1.64,-0.83,-0.16,7.36,-3.93,-29.92,0
474478,-0.02,-0.07,0.98,1.93,-0.84,-0.03,7.36,-3.93,-29.92,0
474490,-0.02,-0.07,0.98,1.94,-0.75,0.07,7.36,-3.93,-29.92,0
474503,-0.02,-0.07,0.98,1.9,-0.77,0.06,7.28,-3.88,-29.76,0
474515,-0.02,-0.07,0.98,1.83,-0.87,-0.02,7.28,-3.88,-29.76,0
474528,-0.01,-0.07,0.98,1.76,-1.01,0.04,7.28,-3.88,-29.76,0
474540,-0.02,-0.07,0.98,1.68,-1.18,-0.02,7.28,-3.88,-29.76,0
474551,-0.02,-0.07,0.98,1.74,-1.26,-0.12,7.24,-3.87,-29.71,0
474564,-0.02,-0.07,0.98,1.77,-1.17,-0.05,7.24,-3.87,-29.71,0
474575,-0.02,-0.07,0.98,1.83,-1.17,0.03,7.24,-3.87,-29.71,0
474589,-0.02,-0.07,0.98,1.99,-0.82,0.26,7.24,-3.87,-29.71,0
474601,-0.02,-0.07,0.98,2.09,-0.67,0.33,7.36,-3.81,-29.63,0
474611,-0.02,-0.07,0.98,2.26,-0.67,0.32,7.36,-3.81,-29.63,0
474622,-0.02,-0.07,0.98,2.38,-0.81,0.34,7.36,-3.81,-29.63,0
474633,-0.01,-0.07,0.98,2.27,-0.97,0.31,7.36,-3.81,-29.63,0
474644,-0.02,-0.07,0.98,2.12,-1.17,0.19,7.27,-3.88,-29.72,0
474658,-0.02,-0.07,0.98,1.82,-1.46,-0.02,7.27,-3.88,-29.72,0
474670,-0.02,-0.07,0.98,1.7,-1.49,-0.17,7.27,-3.88,-29.72,0
474684,-0.02,-0.07,0.98,1.59,-1.37,-0.23,7.27,-3.88,-29.72,0
474695,-0.02,-0.07,0.98,1.55,-1.18,-0.18,7.27,-3.91,-29.78,0
474709,-0.02,-0.07,0.98,1.63,-0.85,-0.02,7.27,-3.91,-29.78,0
474721,-0.02,-0.07,0.98,1.84,-0.74,0.09,7.27,-3.91,-29.78,0
474735,-0.02,-0.07,0.98,2.17,-0.68,0.34,7.27,-3.91,-29.78,0
474746,-0.02,-0.07,0.98,2.29,-0.72,0.39,7.32,-3.94,-29.66,0
474757,-0.02,-0.07,0.98,2.3,-0.78,0.36,7.32,-3.94,-29.66,0
474768,-0.02,-0.07,0.98,2.04,-1.0,0.14,7.32,-3.94,-29.66,0
474779,-0.02,-0.07,0.98,1.9,-1.17,0.06,7.32,-3.94,-29.66,0
474791,-0.02,-0.07,0.98,1.71,-1.29,-0.02,7.32,-3.94,-29.66,0
474804,-0.02,-0.07,0.98,1.51,-1.18,-0.02,7.42,-3.97,-29.64,0
474816,-0.02,-0.07,0.98,1.54,-1.07,0.04,7.42,-3.97,-29.64,0
474829,-0.02,-0.07,0.98,1.81,-0.75,0.15,7.42,-3.97,-29.64,0
474841,-0.02,-0.07,0.98,1.86,-0.61,0.23,7.42,-3.97,-29.64,0
474853,-0.01,-0.07,0.98,1.86,-0.72,0.2,7.3,-3.98,-29.75,0
474865,-0.01,-0.07,0.98,1.72,-0.82,0.08,7.3,-3.98,-29.75,0
474875,-0.01,-0.07,0.98,1.6,-0.98,-0.07,7.3,-3.98,-29.75,0
474887,-0.01,-0.07,0.98,1.52,-1.34,-0.21,7.3,-3.98,-29.75,0
474900,-0.02,-0.07,0.98,1.47,-1.46,-0.24,7.2,-3.91,-30.0,0
474912,-0.02,-0.07,0.98,1.44,-1.52,-0.34,7.2,-3.91,-30.0,0
474924,-0.02,-0.07,0.98,1.53,-1.38,-0.36,7.2,-3.91,-30.0,0
474936,-0.02,-0.07,0.98,1.65,-1.36,-0.36,7.2,-3.91,-30.0,0
474948,-0.02,-0.07,0.99,1.6,-1.46,-0.39,7.13,-3.97,-29.88,0
474959,-0.02,-0.07,0.98,1.37,-1.38,-0.38,7.13,-3.97,-29.88,0
474971,-0.02,-0.07,0.98,1.23,-1.25,-0.42,7.13,-3.97,-29.88,0
474982,-0.02,-0.07,0.98,1.1,-1.34,-0.49,7.13,-3.97,-29.88,0
474995,-0.01,-0.07,0.98,1.22,-1.5,-0.49,7.09,-4.01,-29.9,0
475006,-0.01,-0.07,0.98,1.44,-1.7,-0.42,7.09,-4.01,-29.9,0
475019,-0.02,-0.07,0.98,1.63,-1.76,-0.35,7.09,-4.01,-29.9,0
475030,-0.02,-0.07,0.98,1.7,-1.62,-0.26,7.09,-4.01,-29.9,0
475041,-0.02,-0.07,0.98,1.69,-1.45,-0.23,7.09,-4.01,-29.9,0
475054,-0.02,-0.07,0.98,1.82,-1.38,-0.35,7.13,-4.11,-29.85,0
475066,-0.02,-0.07,0.98,1.79,-1.35,-0.36,7.13,-4.11,-29.85,0
475078,-0.02,-0.07,0.98,1.72,-1.32,-0.29,7.13,-4.11,-29.85,0
475090,-0.02,-0.07,0.98,1.73,-1.15,-0.17,7.13,-4.11,-29.85,0
475101,-0.02,-0.07,0.98,1.87,-0.99,0.0,7.01,-4.06,-29.8,0
475112,-0.02,-0.07,0.98,2.11,-0.89,0.16,7.01,-4.06,-29.8,0
475124,-0.02,-0.07,0.98,2.3,-0.79,0.27,7.01,-4.06,-29.8,0
475137,-0.02,-0.07,0.98,2.14,-0.96,0.29,7.01,-4.06,-29.8,0
475149,-0.02,-0.07,0.98,1.99,-1.1,0.23,6.91,-4.08,-29.96,0
475161,-0.02,-0.07,0.98,1.87,-1.17,0.14,6.91,-4.08,-29.96,0
475173,-0.02,-0.07,0.98,1.66,-1.2,-0.06,6.91,-4.08,-29.96,0
475184,-0.02,-0.07,0.98,1.71,-1.3,-0.16,6.91,-4.08,-29.96,0
475197,-0.02,-0.07,0.98,1.91,-1.52,-0.05,6.93,-4.1,-29.97,0
475208,-0.02,-0.07,0.98,1.88,-1.56,-0.09,6.93,-4.1,-29.97,0
475220,-0.02,-0.07,0.98,1.79,-1.49,-0.21,6.93,-4.1,-29.97,0
475231,-0.02,-0.07,0.98,1.57,-1.35,-0.33,6.93,-4.1,-29.97,0
475243,-0.02,-0.07,0.98,1.48,-1.42,-0.36,6.86,-4.01,-30.16,0
475254,-0.02,-0.07,0.98,1.46,-1.4,-0.38,6.86,-4.01,-30.16,0
475268,-0.02,-0.07,0.98,1.58,-1.11,-0.14,6.86,-4.01,-30.16,0
475279,-0.02,-0.07,0.98,1.84,-1.08,-0.01,6.86,-4.01,-30.16,0
475290,-0.02,-0.07,0.98,2.0,-1.13,0.06,6.86,-4.01,-30.16,0
475303,-0.02,-0.07,0.98,1.96,-1.3,0.02,6.76,-3.93,-30.12,0
475315,-0.02,-0.07,0.98,1.9,-1.35,-0.04,6.76,-3.93,-30.12,0
475326,-0.02,-0.07,0.98,1.78,-1.39,-0.06,6.76,-3.93,-30.12,0
475337,-0.02,-0.07,0.98,1.69,-1.35,-0.11,6.76,-3.93,-30.12,0
475348,-0.02,-0.07,0.98,1.63,-1.29,-0.16,6.73,-3.89,-30.34,0
475362,-0.02,-0.07,0.98,1.81,-1.09,-0.12,6.73,-3.89,-30.34,0
475374,-0.02,-0.07,0.98,1.91,-1.08,-0.04,6.73,-3.89,-30.34,0
475388,-0.02,-0.07,0.98,1.86,-0.97,0.09,6.73,-3.89,-30.34,0
475399,-0.02,-0.07,0.98,1.83,-0.83,0.09,6.83,-3.93,-30.37,0
475411,-0.02,-0.07,0.98,1.79,-0.85,-0.06,6.83,-3.93,-30.37,0
475423,-0.02,-0.07,0.98,1.9,-1.02,0.01,6.83,-3.93,-30.37,0
475434,-0.02,-0.07,0.98,1.95,-1.2,0.06,6.83,-3.93,-30.37,0
475448,-0.02,-0.07,0.98,1.75,-1.41,-0.05,6.92,-3.93,-30.06,0
475459,-0.02,-0.07,0.98,1.66,-1.42,-0.15,6.92,-3.93,-30.06,0
475470,-0.02,-0.07,0.98,1.6,-1.38,-0.15,6.92,-3.93,-30.06,0
475482,-0.02,-0.07,0.98,1.56,-1.27,-0.01,6.92,-3.93,-30.06,0
475493,-0.02,-0.07,0.98,1.59,-1.07,-0.01,6.91,-3.84,-30.14,0
475504,-0.02,-0.07,0.98,1.67,-0.87,0.02,6.91,-3.84,-30.14,0
475515,-0.02,-0.07,0.98,1.75,-0.83,0.09,6.91,-3.84,-30.14,0
475526,-0.02,-0.07,0.98,1.8,-0.87,0.1,6.91,-3.84,-30.14,0
475538,-0.02,-0.07,0.98,1.76,-0.94,0.08,6.91,-3.84,-30.14,0
475551,-0.02,-0.07,0.98,1.79,-1.22,0.1,7.03,-3.95,-29.94,0
475563,-0.02,-0.07,0.98,1.83,-1.18,0.18,7.03,-3.95,-29.94,0
475577,-0.02,-0.07,0.98,2.06,-0.99,0.4,7.03,-3.95,-29.94,0
475589,-0.02,-0.07,0.98,2.28,-0.95,0.48,7.03,-3.95,-29.94,0
475602,-0.02,-0.07,0.98,2.42,-0.98,0.56,7.14,-4.03,-29.91,0
475614,-0.02,-0.07,0.98,2.33,-1.0,0.46,7.14,-4.03,-29.91,0
475624,-0.02,-0.07,0.98,2.19,-0.99,0.31,7.14,-4.03,-29.91,0
475635,-0.02,-0.07,0.98,1.74,-1.17,0.01,7.14,-4.03,-29.91,0
475647,-0.02,-0.07,0.98,1.56,-1.22,-0.12,6.98,-4.09,-29.88,0
475659,-0.02,-0.07,0.98,1.5,-1.22,-0.2,6.98,-4.09,-29.88,0
475671,-0.02,-0.07,0.98,1.43,-1.17,-0.31,6.98,-4.09,-29.88,0
475683,-0.02,-0.07,0.98,1.47,-1.18,-0.25,6.98,-4.09,-29.88,0
475695,-0.02,-0.07,0.98,1.7,-1.12,-0.01,6.97,-3.97,-29.66,0
475706,-0.02,-0.07,0.98,1.73,-1.14,0.03,6.97,-3.97,-29.66,0
475718,-0.02,-0.07,0.98,1.72,-1.19,-0.01,6.97,-3.97,-29.66,0
475729,-0.02,-0.07,0.98,1.82,-1.15,-0.03,6.97,-3.97,-29.66,0
475741,-0.02,-0.07,0.98,1.78,-1.19,-0.03,6.93,-3.81,-29.74,0
475752,-0.02,-0.07,0.98,1.7,-1.26,-0.06,6.93,-3.81,-29.74,0
475765,-0.02,-0.07,0.98,1.46,-1.08,-0.17,6.93,-3.81,-29.74,0
475778,-0.02,-0.07,0.98,1.49,-1.07,-0.15,6.93,-3.81,-29.74,0
475792,-0.02,-0.07,0.98,1.77,-1.2,0.01,6.94,-3.78,-29.77,0
475803,-0.02,-0.07,0.98,1.92,-1.06,0.06,6.94,-3.78,-29.77,0
475817,-0.02,-0.07,0.98,1.94,-0.73,0.21,6.94,-3.78,-29.77,0
475828,-0.02,-0.07,0.98,1.91,-0.75,0.16,6.94,-3.78,-29.77,0
475839,-0.02,-0.07,0.98,1.88,-0.78,-0.01,6.94,-3.78,-29.77,0
475852,-0.02,-0.07,0.98,1.62,-1.16,-0.11,7.04,-3.73,-29.73,0
475864,-0.02,-0.07,0.98,1.49,-1.38,-0.17,7.04,-3.73,-29.73,0
475875,-0.02,-0.07,0.98,1.35,-1.32,-0.1,7.04,-3.73,-29.73,0
475886,-0.02,-0.07,0.98,1.55,-1.19,-0.08,7.04,-3.73,-29.73,0
475898,-0.02,-0.07,0.98,1.8,-1.09,0.03,7.16,-3.74,-29.78,0
475911,-0.02,-0.07,0.98,2.02,-0.97,0.19,7.16,-3.74,-29.78,0
475922,-0.02,-0.07,0.98,1.98,-0.92,0.22,7.16,-3.74,-29.78,0
475933,-0.02,-0.07,0.98,1.8,-0.85,0.24,7.16,-3.74,-29.78,0
475947,-0.02,-0.07,0.98,1.65,-0.91,0.17,7.19,-3.75,-29.94,0
475958,-0.02,-0.07,0.98,1.63,-0.99,0.1,7.19,-3.75,-29.94,0
475970,-0.02,-0.07,0.98,1.9,-1.15,0.06,7.19,-3.75,-29.94,0
475981,-0.02,-0.07,0.98,2.06,-1.26,0.1,7.19,-3.75,-29.94,0
