time,acc_x,acc_y,acc_z,gyro_x,gyro_y,gyro_z,mag_x,mag_y,mag_z,label
2939311,0.65,0.03,0.73,2.18,-0.59,-0.13,42.74,27.43,-18.45,4
2939323,0.64,0.04,0.72,2.21,-0.4,0.06,42.74,27.43,-18.45,4
2939336,0.65,0.04,0.73,1.35,-0.16,0.68,42.74,27.43,-18.45,4
2939347,0.65,0.04,0.73,1.54,-0.07,0.98,42.79,27.55,-18.41,4
2939359,0.65,0.04,0.73,1.14,-0.38,0.92,42.79,27.55,-18.41,4
2939371,0.65,0.05,0.73,1.38,-1.24,0.08,42.79,27.55,-18.41,4
2939382,0.64,0.05,0.73,2.09,-1.43,-0.46,42.79,27.55,-18.41,4
2939396,0.64,0.04,0.73,2.89,-1.55,-1.46,42.82,27.52,-18.24,4
2939408,0.64,0.04,0.73,2.72,-1.65,-1.67,42.82,27.52,-18.24,4
2939419,0.65,0.03,0.73,2.39,-1.8,-1.54,42.82,27.52,-18.24,4
2939431,0.65,0.04,0.73,1.8,-2.03,-0.54,42.82,27.52,-18.24,4
2939443,0.65,0.04,0.73,1.75,-2.05,-0.21,42.82,27.52,-18.24,4
2939453,0.65,0.04,0.73,1.82,-2.04,-0.18,42.88,27.66,-18.21,4
2939466,0.65,0.03,0.73,2.14,-1.65,-0.42,42.88,27.66,-18.21,4
2939477,0.65,0.03,0.73,2.13,-1.72,-0.65,42.88,27.66,-18.21,4
2939490,0.65,0.03,0.73,1.65,-2.27,-1.02,42.88,27.66,-18.21,4
2939501,0.65,0.04,0.73,1.57,-2.46,-0.93,42.93,27.57,-18.21,4
2939513,0.65,0.04,0.73,1.72,-2.49,-0.78,42.93,27.57,-18.21,4
2939524,0.65,0.04,0.73,1.94,-2.66,-0.63,42.93,27.57,-18.21,4
2939535,0.65,0.03,0.73,2.03,-2.8,-0.6,42.93,27.57,-18.21,4
2939546,0.65,0.03,0.73,2.13,-2.95,-0.68,42.91,27.66,-18.14,4
2939559,0.64,0.03,0.73,2.27,-2.92,-0.75,42.91,27.66,-18.14,4
2939570,0.64,0.03,0.73,2.36,-2.54,-0.61,42.91,27.66,-18.14,4
2939580,0.65,0.03,0.73,2.54,-2.17,-0.48,42.91,27.66,-18.14,4
2939590,0.65,0.03,0.73,2.57,-1.96,-0.41,42.91,27.66,-18.14,4
2939602,0.65,0.03,0.74,2.14,-1.93,-0.12,42.8,27.74,-18.08,4
2939614,0.65,0.03,0.74,2.11,-1.8,-0.0,42.8,27.74,-18.08,4
2939626,0.65,0.03,0.74,2.1,-1.62,0.03,42.8,27.74,-18.08,4
2939637,0.64,0.03,0.73,2.22,-1.13,0.52,42.8,27.74,-18.08,4
2939648,0.64,0.03,0.73,2.13,-0.85,0.73,42.69,27.8,-18.01,4
2939661,0.64,0.03,0.73,1.47,-0.6,1.0,42.69,27.8,-18.01,4
2939672,0.65,0.03,0.73,1.19,-0.5,1.15,42.69,27.8,-18.01,4
2939684,0.65,0.04,0.73,1.09,-0.5,1.0,42.69,27.8,-18.01,4
2939698,0.65,0.05,0.73,1.47,-0.75,0.16,42.73,27.72,-17.86,4
2939710,0.65,0.04,0.73,1.84,-0.95,-0.2,42.73,27.72,-17.86,4
2939723,0.64,0.03,0.73,2.44,-1.12,-0.65,42.73,27.72,-17.86,4
2939735,0.64,0.03,0.73,2.38,-1.18,-0.58,42.73,27.72,-17.86,4
2939745,0.64,0.03,0.73,2.21,-1.24,-0.38,42.7,27.83,-17.88,4
2939757,0.65,0.03,0.73,1.89,-1.83,-0.4,42.7,27.83,-17.88,4
2939769,0.65,0.03,0.73,1.77,-2.15,-0.57,42.7,27.83,-17.88,4
2939782,0.65,0.03,0.73,2.01,-2.56,-0.51,42.7,27.83,-17.88,4
2939792,0.65,0.03,0.74,2.07,-2.6,-0.55,42.7,27.83,-17.88,4
2939803,0.64,0.03,0.73,2.0,-2.57,-0.48,42.63,27.75,-17.66,4
2939817,0.64,0.03,0.74,1.57,-2.36,-0.14,42.63,27.75,-17.66,4
2939829,0.64,0.03,0.74,1.3,-2.21,0.08,42.63,27.75,-17.66,4
2939840,0.65,0.04,0.74,1.15,-1.95,0.44,42.63,27.75,-17.66,4
2939853,0.64,0.04,0.73,1.57,-1.45,0.66,42.58,27.86,-17.78,4
2939864,0.64,0.04,0.73,1.88,-1.54,0.26,42.58,27.86,-17.78,4
2939878,0.64,0.04,0.73,2.65,-2.2,-0.76,42.58,27.86,-17.78,4
2939890,0.64,0.03,0.74,3.05,-2.47,-1.1,42.58,27.86,-17.78,4
2939901,0.64,0.03,0.74,3.2,-2.74,-1.28,42.6,27.84,-18.0,4
2939912,0.65,0.02,0.74,2.92,-2.65,-0.86,42.6,27.84,-18.0,4
2939924,0.65,0.02,0.74,2.47,-2.57,-0.31,42.6,27.84,-18.0,4
2939938,0.65,0.03,0.74,1.5,-2.48,0.62,42.6,27.84,-18.0,4
2939948,0.64,0.03,0.74,1.37,-2.34,0.82,42.48,27.69,-18.02,4
2939960,0.64,0.03,0.74,1.39,-2.12,0.76,42.48,27.69,-18.02,4
2939972,0.64,0.04,0.74,1.59,-1.73,0.07,42.48,27.69,-18.02,4
2939984,0.64,0.04,0.74,1.66,-1.79,-0.32,42.48,27.69,-18.02,4
2939997,0.64,0.04,0.74,1.71,-1.75,-0.54,42.46,27.69,-17.95,4
2940009,0.64,0.04,0.74,1.84,-1.67,-0.59,42.46,27.69,-17.95,4
2940019,0.64,0.03,0.74,2.03,-1.59,-0.89,42.46,27.69,-17.95,4
2940032,0.64,0.03,0.74,2.22,-1.88,-1.32,42.46,27.69,-17.95,4
2940044,0.64,0.03,0.74,2.33,-1.96,-1.3,42.46,27.69,-17.95,4
2940055,0.64,0.03,0.74,2.49,-1.99,-1.18,42.49,27.79,-18.07,4
2940066,0.64,0.02,0.74,2.42,-2.21,-0.92,42.49,27.79,-18.07,4
2940078,0.64,0.02,0.74,2.27,-2.33,-0.61,42.49,27.79,-18.07,4
2940091,0.64,0.02,0.74,1.55,-2.31,0.26,42.49,27.79,-18.07,4
2943142,0.65,0.02,0.74,0.8,-1.98,0.39,42.5,27.99,-18.09,4
2943153,0.66,0.02,0.75,1.34,-1.7,0.56,42.5,27.99,-18.09,4
2943166,0.65,0.02,0.74,1.72,-1.52,0.72,42.5,27.99,-18.09,4
2943177,0.64,0.03,0.74,1.49,-1.72,0.44,42.5,27.99,-18.09,4
2943188,0.64,0.03,0.74,1.74,-1.71,0.2,42.5,27.99,-18.09,4
2943201,0.63,0.03,0.73,2.44,-1.3,-0.21,42.59,28.03,-18.24,4
2943212,0.64,0.03,0.74,2.22,-1.12,-0.35,42.59,28.03,-18.24,4
2943223,0.64,0.03,0.74,1.83,-1.13,-0.29,42.59,28.03,-18.24,4
2943234,0.65,0.03,0.74,1.46,-1.16,0.2,42.59,28.03,-18.24,4
2943246,0.64,0.03,0.74,1.34,-1.2,0.36,42.49,27.94,-18.4,4
2943257,0.64,0.03,0.74,1.45,-1.17,0.25,42.49,27.94,-18.4,4
2943268,0.64,0.03,0.74,2.05,-1.03,-0.37,42.49,27.94,-18.4,4
2943279,0.64,0.03,0.74,2.34,-0.99,-0.58,42.49,27.94,-18.4,4
2943290,0.64,0.03,0.74,2.4,-1.05,-0.7,42.48,27.99,-18.66,4
2943303,0.64,0.03,0.74,2.23,-1.11,-0.61,42.48,27.99,-18.66,4
2943314,0.64,0.02,0.74,1.94,-1.12,-0.43,42.48,27.99,-18.66,4
2943324,0.64,0.02,0.74,1.51,-1.17,-0.12,42.48,27.99,-18.66,4
2943334,0.65,0.02,0.74,1.15,-1.18,0.31,42.48,27.99,-18.66,4
2943347,0.64,0.03,0.74,1.07,-1.15,0.92,42.44,27.95,-18.66,4
2943358,0.64,0.03,0.74,1.25,-1.1,0.74,42.44,27.95,-18.66,4
2943370,0.63,0.04,0.74,1.54,-1.06,0.3,42.44,27.95,-18.66,4
2943382,0.63,0.04,0.73,2.17,-1.2,-0.71,42.44,27.95,-18.66,4
2943393,0.64,0.03,0.74,2.19,-1.34,-0.92,42.4,28.0,-18.65,4
2943403,0.65,0.03,0.74,2.15,-1.45,-0.82,42.4,28.0,-18.65,4
2943413,0.65,0.03,0.74,1.93,-1.43,-0.55,42.4,28.0,-18.65,4
2943425,0.64,0.03,0.74,1.84,-1.24,0.02,42.4,28.0,-18.65,4
2943435,0.64,0.03,0.74,1.93,-1.18,-0.09,42.4,28.0,-18.65,4
2943446,0.64,0.03,0.74,2.13,-1.19,-0.38,42.49,27.97,-18.7,4
2943456,0.64,0.03,0.74,2.32,-1.16,-0.59,42.49,27.97,-18.7,4
2943468,0.64,0.02,0.74,1.96,-1.15,-0.34,42.49,27.97,-18.7,4
2943478,0.64,0.02,0.74,1.7,-1.15,0.09,42.49,27.97,-18.7,4
2943488,0.64,0.03,0.74,1.47,-1.13,0.36,42.49,27.97,-18.7,4
2943498,0.64,0.03,0.74,1.36,-1.09,0.49,42.46,27.95,-18.59,4
2943510,0.64,0.03,0.74,1.8,-0.95,0.16,42.46,27.95,-18.59,4
2943522,0.64,0.03,0.74,2.07,-0.94,-0.17,42.46,27.95,-18.59,4
2943535,0.64,0.03,0.74,1.82,-1.01,-0.45,42.46,27.95,-18.59,4
2943547,0.64,0.03,0.74,1.6,-0.98,-0.29,42.47,27.98,-18.41,4
2943558,0.64,0.03,0.74,1.55,-0.94,-0.09,42.47,27.98,-18.41,4
2943570,0.64,0.03,0.74,1.53,-0.87,0.05,42.47,27.98,-18.41,4
2943581,0.64,0.03,0.74,1.68,-0.91,0.01,42.47,27.98,-18.41,4
2943592,0.64,0.03,0.74,1.91,-0.99,-0.19,42.46,27.92,-18.19,4
2943604,0.64,0.03,0.74,2.15,-1.2,-0.53,42.46,27.92,-18.19,4
2943616,0.64,0.03,0.74,2.13,-1.18,-0.46,42.46,27.92,-18.19,4
2943629,0.64,0.03,0.74,1.86,-1.09,-0.11,42.46,27.92,-18.19,4
2943641,0.64,0.03,0.74,1.61,-1.1,0.08,42.52,28.01,-18.17,4
2943652,0.64,0.03,0.74,1.55,-1.1,0.22,42.52,28.01,-18.17,4
2943663,0.64,0.03,0.74,1.73,-1.01,0.19,42.52,28.01,-18.17,4
2943674,0.64,0.03,0.74,1.83,-0.99,0.07,42.52,28.01,-18.17,4
2943684,0.64,0.03,0.74,1.94,-1.02,-0.13,42.52,28.01,-18.17,4
2943695,0.64,0.03,0.74,2.04,-1.13,-0.36,42.48,28.09,-18.17,4
2943708,0.64,0.03,0.74,1.9,-1.25,-0.49,42.48,28.09,-18.17,4
2943720,0.64,0.03,0.74,1.79,-1.22,-0.23,42.48,28.09,-18.17,4
2943730,0.64,0.02,0.74,1.87,-1.11,0.05,42.48,28.09,-18.17,4
2943742,0.64,0.03,0.74,1.5,-1.13,0.52,42.43,28.02,-18.17,4
2943754,0.64,0.03,0.74,1.37,-1.13,0.73,42.43,28.02,-18.17,4
2943764,0.64,0.03,0.74,1.45,-1.05,0.73,42.43,28.02,-18.17,4
2943775,0.64,0.03,0.74,1.71,-1.07,0.24,42.43,28.02,-18.17,4
2943785,0.64,0.03,0.74,1.89,-1.08,-0.03,42.43,28.02,-18.17,4
2943796,0.64,0.03,0.74,2.1,-1.1,-0.29,42.38,28.06,-18.22,4
2943809,0.64,0.03,0.74,2.45,-1.15,-0.78,42.38,28.06,-18.22,4
2943820,0.64,0.03,0.74,2.54,-1.22,-0.81,42.38,28.06,-18.22,4
2943830,0.64,0.02,0.74,2.6,-1.23,-0.71,42.38,28.06,-18.22,4
2943841,0.64,0.02,0.74,2.56,-1.27,-0.57,42.38,28.01,-17.98,4
2943854,0.64,0.02,0.74,1.96,-1.19,0.08,42.38,28.01,-17.98,4
2943865,0.64,0.02,0.74,1.69,-0.94,0.49,42.38,28.01,-17.98,4
2943879,0.64,0.03,0.74,1.02,-0.21,0.9,42.38,28.01,-17.98,4
2943890,0.64,0.03,0.74,0.93,-0.07,0.99,42.39,28.07,-18.24,4
2943900,0.64,0.03,0.74,1.06,0.02,1.0,42.39,28.07,-18.24,4
2943912,0.64,0.03,0.74,1.34,0.42,0.48,42.39,28.07,-18.24,4
2943923,0.64,0.03,0.74,1.53,0.55,0.32,42.39,28.07,-18.24,4
2943933,0.64,0.03,0.74,1.69,0.63,0.2,42.39,28.07,-18.24,4
2943943,0.64,0.03,0.74,1.65,0.44,0.07,42.53,28.1,-18.37,4
2943957,0.64,0.03,0.74,1.47,-0.16,0.14,42.53,28.1,-18.37,4
2943967,0.64,0.03,0.74,1.65,-0.3,0.21,42.53,28.1,-18.37,4
2943978,0.64,0.03,0.74,1.82,-0.38,0.25,42.53,28.1,-18.37,4
2943989,0.64,0.03,0.74,1.88,-0.41,0.23,42.57,28.16,-18.26,4
2944000,0.64,0.03,0.74,1.85,-0.42,0.18,42.57,28.16,-18.26,4
2944010,0.64,0.03,0.74,1.82,-0.45,0.13,42.57,28.16,-18.26,4
2944021,0.64,0.03,0.74,1.57,-0.47,0.27,42.57,28.16,-18.26,4
2944035,0.64,0.03,0.74,1.26,-0.4,0.45,42.57,28.16,-18.26,4
2944045,0.64,0.03,0.74,1.25,-0.37,0.48,42.62,28.29,-18.42,4
2944058,0.64,0.03,0.74,1.36,-0.26,0.46,42.62,28.29,-18.42,4
2944069,0.64,0.03,0.74,1.51,-0.19,0.49,42.62,28.29,-18.42,4
2944080,0.64,0.03,0.74,1.71,-0.18,0.57,42.62,28.29,-18.42,4
2944092,0.64,0.03,0.74,2.0,-0.21,0.68,42.66,28.39,-18.38,4
2944103,0.64,0.03,0.74,1.99,-0.27,0.78,42.66,28.39,-18.38,4
2944115,0.64,0.02,0.74,1.85,-0.31,0.86,42.66,28.39,-18.38,4
2944128,0.65,0.02,0.74,1.36,-0.29,1.23,42.66,28.39,-18.38,4
2944139,0.65,0.02,0.74,1.08,-0.25,1.39,42.67,28.43,-18.44,4
2944150,0.64,0.03,0.74,0.91,-0.18,1.48,42.67,28.43,-18.44,4
2944161,0.64,0.03,0.73,0.89,0.02,1.19,42.67,28.43,-18.44,4
2944172,0.64,0.04,0.73,1.1,0.06,0.85,42.67,28.43,-18.44,4
2944183,0.64,0.04,0.73,1.38,0.06,0.45,42.67,28.43,-18.44,4
2944194,0.64,0.04,0.73,1.6,0.02,0.07,42.73,28.52,-18.37,4
2944206,0.65,0.03,0.74,2.02,0.02,-0.33,42.73,28.52,-18.37,4
2944217,0.65,0.03,0.74,2.03,-0.0,-0.22,42.73,28.52,-18.37,4
2944230,0.65,0.03,0.74,1.92,0.01,0.29,42.73,28.52,-18.37,4
2944241,0.65,0.03,0.73,1.71,-0.17,0.26,42.77,28.46,-18.29,4
2944253,0.65,0.03,0.73,1.62,-0.4,0.12,42.77,28.46,-18.29,4
2944263,0.65,0.03,0.73,1.63,-0.57,0.04,42.77,28.46,-18.29,4
2944274,0.65,0.03,0.73,1.62,-0.64,0.14,42.77,28.46,-18.29,4
2944286,0.65,0.03,0.73,1.61,-0.58,0.33,42.77,28.46,-18.29,4
2944297,0.65,0.03,0.73,1.69,-0.58,0.42,42.78,28.59,-18.39,4
2944308,0.65,0.03,0.73,1.81,-0.86,0.08,42.78,28.59,-18.39,4
2944320,0.65,0.03,0.74,1.88,-1.06,-0.12,42.78,28.59,-18.39,4
2944330,0.65,0.03,0.74,1.98,-1.16,-0.22,42.78,28.59,-18.39,4
2944341,0.65,0.03,0.74,2.14,-1.09,-0.07,42.84,28.61,-18.41,4
2944352,0.64,0.03,0.73,2.06,-1.08,-0.02,42.84,28.61,-18.41,4
2944364,0.65,0.03,0.73,1.99,-1.11,-0.09,42.84,28.61,-18.41,4
2944377,0.65,0.03,0.73,2.07,-1.25,-0.25,42.84,28.61,-18.41,4
2944389,0.64,0.03,0.73,2.11,-1.26,-0.23,42.85,28.68,-18.37,4
2944399,0.64,0.03,0.73,2.15,-1.18,-0.22,42.85,28.68,-18.37,4
2944409,0.64,0.03,0.73,2.16,-1.08,-0.28,42.85,28.68,-18.37,4
2944421,0.65,0.03,0.73,2.34,-0.99,-0.48,42.85,28.68,-18.37,4
2944431,0.65,0.03,0.74,2.44,-0.96,-0.47,42.85,28.68,-18.37,4
2944441,0.65,0.02,0.74,2.39,-0.97,-0.34,42.88,28.73,-18.35,4
2944455,0.65,0.03,0.73,2.05,-1.15,-0.07,42.88,28.73,-18.35,4
2944466,0.65,0.03,0.73,1.87,-1.23,-0.01,42.88,28.73,-18.35,4
2944479,0.65,0.03,0.73,1.76,-1.24,0.35,42.88,28.73,-18.35,4
2944491,0.65,0.03,0.73,1.75,-1.11,0.49,43.03,28.66,-18.28,4
2944501,0.65,0.03,0.73,1.77,-1.07,0.45,43.03,28.66,-18.28,4
2944513,0.65,0.03,0.74,1.71,-1.05,0.19,43.03,28.66,-18.28,4
2944524,0.65,0.03,0.74,1.64,-1.05,0.18,43.03,28.66,-18.28,4
2944534,0.65,0.03,0.73,1.59,-1.02,0.14,43.03,28.66,-18.28,4
2944544,0.65,0.03,0.73,1.55,-0.97,0.03,42.98,28.59,-18.23,4
2944558,0.65,0.03,0.73,1.51,-0.92,0.02,42.98,28.59,-18.23,4
2944568,0.65,0.03,0.73,1.57,-0.96,0.08,42.98,28.59,-18.23,4
2944578,0.65,0.03,0.73,1.65,-0.99,0.15,42.98,28.59,-18.23,4
2944588,0.65,0.03,0.73,1.7,-1.0,0.17,42.99,28.51,-18.11,4
2944599,0.65,0.03,0.73,1.81,-0.96,-0.13,42.99,28.51,-18.11,4
2944610,0.65,0.03,0.73,1.69,-0.99,-0.3,42.99,28.51,-18.11,4
2944621,0.65,0.03,0.73,1.59,-0.98,-0.29,42.99,28.51,-18.11,4
2944635,0.64,0.03,0.73,1.52,-0.87,-0.24,42.99,28.51,-18.11,4
2944646,0.64,0.03,0.73,1.53,-0.95,-0.35,43.0,28.58,-17.83,4
2944657,0.65,0.03,0.73,1.6,-1.07,-0.51,43.0,28.58,-17.83,4
2944669,0.65,0.03,0.73,1.81,-1.19,-0.48,43.0,28.58,-17.83,4
2944681,0.65,0.02,0.74,1.88,-1.14,-0.28,43.0,28.58,-17.83,4
2944692,0.65,0.02,0.74,1.81,-1.16,-0.03,43.05,28.59,-17.76,4
2944703,0.64,0.03,0.73,1.61,-1.09,0.19,43.05,28.59,-17.76,4
2944715,0.65,0.03,0.73,1.63,-1.12,0.09,43.05,28.59,-17.76,4
2944726,0.65,0.03,0.73,1.77,-1.17,-0.06,43.05,28.59,-17.76,4
2944739,0.65,0.03,0.73,1.97,-1.31,-0.18,43.03,28.65,-17.87,4
2944751,0.65,0.02,0.74,1.75,-1.37,-0.01,43.03,28.65,-17.87,4
2944761,0.65,0.02,0.74,1.4,-1.31,0.28,43.03,28.65,-17.87,4
2944772,0.64,0.03,0.73,1.32,-1.13,0.55,43.03,28.65,-17.87,4
2944784,0.64,0.03,0.73,1.52,-1.09,0.35,43.03,28.65,-17.87,4
2944795,0.64,0.03,0.73,1.7,-1.11,0.06,43.01,28.7,-18.09,4
2944805,0.64,0.03,0.73,1.97,-1.24,-0.42,43.01,28.7,-18.09,4
2944816,0.65,0.03,0.74,2.06,-1.23,-0.48,43.01,28.7,-18.09,4
2944828,0.65,0.03,0.73,2.12,-1.22,-0.38,43.01,28.7,-18.09,4
2944840,0.65,0.03,0.73,2.27,-1.25,-0.36,43.02,28.76,-18.03,4
2944850,0.65,0.03,0.73,2.29,-1.29,-0.43,43.02,28.76,-18.03,4
2944862,0.65,0.02,0.73,2.23,-1.26,-0.42,43.02,28.76,-18.03,4
2944875,0.65,0.02,0.73,1.92,-1.2,-0.09,43.02,28.76,-18.03,4
2944888,0.65,0.02,0.73,1.51,-1.16,0.12,43.04,28.83,-17.94,4
2944898,0.65,0.02,0.73,1.24,-1.1,0.32,43.04,28.83,-17.94,4
2944908,0.65,0.03,0.73,1.06,-1.0,0.41,43.04,28.83,-17.94,4
2944919,0.65,0.03,0.73,1.08,-0.95,0.4,43.04,28.83,-17.94,4
2944931,0.65,0.03,0.73,1.18,-0.92,0.35,43.04,28.83,-17.94,4
2944942,0.65,0.03,0.73,1.56,-0.91,0.05,43.08,28.82,-17.88,4
2944953,0.65,0.03,0.74,1.71,-0.89,-0.11,43.08,28.82,-17.88,4
2944964,0.65,0.03,0.74,1.75,-0.91,-0.22,43.08,28.82,-17.88,4
2944977,0.65,0.02,0.74,1.65,-1.04,0.03,43.08,28.82,-17.88,4
2944989,0.65,0.02,0.74,1.47,-1.06,0.17,43.08,28.93,-17.98,4
2944999,0.65,0.03,0.73,1.35,-1.05,0.31,43.08,28.93,-17.98,4
2945011,0.65,0.03,0.73,1.34,-0.89,0.47,43.08,28.93,-17.98,4
2945022,0.65,0.03,0.73,1.37,-0.85,0.46,43.08,28.93,-17.98,4
2945033,0.65,0.03,0.73,1.5,-0.84,0.37,43.08,28.93,-17.98,4
2945044,0.65,0.03,0.74,1.57,-0.87,0.3,43.03,28.95,-17.9,4
2945056,0.65,0.03,0.73,1.42,-0.94,0.37,43.03,28.95,-17.9,4
2945067,0.65,0.03,0.73,1.42,-0.95,0.35,43.03,28.95,-17.9,4
2945078,0.65,0.03,0.73,1.48,-0.97,0.3,43.03,28.95,-17.9,4
2945091,0.65,0.03,0.73,1.66,-0.99,0.07,43.1,29.06,-18.02,4
2945103,0.65,0.03,0.73,1.69,-1.0,-0.06,43.1,29.06,-18.02,4
2945113,0.65,0.03,0.73,1.69,-0.97,-0.09,43.1,29.06,-18.02,4
2945125,0.65,0.03,0.73,1.9,-0.98,-0.17,43.1,29.06,-18.02,4
2945135,0.65,0.03,0.73,2.06,-1.02,-0.35,43.1,29.06,-18.02,4
2945145,0.65,0.03,0.73,2.21,-1.07,-0.56,43.05,29.05,-18.02,4
2945159,0.65,0.03,0.73,2.24,-1.13,-0.54,43.05,29.05,-18.02,4
2945170,0.65,0.03,0.73,2.25,-1.12,-0.4,43.05,29.05,-18.02,4
2945183,0.65,0.02,0.73,1.92,-1.06,0.11,43.05,29.05,-18.02,4
2945195,0.65,0.02,0.73,1.69,-0.97,0.39,43.18,29.0,-17.98,4
2945206,0.65,0.03,0.73,1.53,-0.92,0.47,43.18,29.0,-17.98,4
2945219,0.65,0.04,0.73,1.51,-0.8,0.31,43.18,29.0,-17.98,4
2945231,0.65,0.04,0.73,1.77,-0.77,0.04,43.18,29.0,-17.98,4
2945242,0.65,0.03,0.73,1.93,-0.81,-0.33,43.15,28.97,-17.72,4
2945253,0.65,0.03,0.74,2.11,-1.01,-0.69,43.15,28.97,-17.72,4
2945265,0.65,0.02,0.74,1.98,-1.03,-0.48,43.15,28.97,-17.72,4
2945278,0.65,0.02,0.74,1.71,-0.83,0.27,43.15,28.97,-17.72,4
2945289,0.65,0.03,0.73,1.61,-0.76,0.42,43.14,29.02,-17.83,4
2945301,0.65,0.03,0.73,1.62,-0.71,0.34,43.14,29.02,-17.83,4
2945312,0.65,0.03,0.73,1.83,-0.74,-0.16,43.14,29.02,-17.83,4
2945322,0.65,0.03,0.73,1.86,-0.8,-0.22,43.14,29.02,-17.83,4
2945334,0.65,0.03,0.73,1.77,-0.77,-0.04,43.14,29.02,-17.83,4
2945345,0.65,0.03,0.73,1.65,-0.71,0.23,43.16,29.01,-17.88,4
2945357,0.65,0.03,0.73,1.4,-0.59,0.49,43.16,29.01,-17.88,4
2945368,0.65,0.03,0.73,1.44,-0.59,0.49,43.16,29.01,-17.88,4
2945380,0.65,0.03,0.73,1.63,-0.55,0.34,43.16,29.01,-17.88,4
2945392,0.65,0.03,0.73,1.75,-0.55,0.28,43.19,29.02,-18.06,4
2945403,0.65,0.03,0.73,1.8,-0.59,0.26,43.19,29.02,-18.06,4
2945417,0.65,0.03,0.73,1.58,-0.58,0.35,43.19,29.02,-18.06,4
2945428,0.65,0.03,0.73,1.43,-0.53,0.57,43.19,29.02,-18.06,4
2945439,0.65,0.03,0.73,1.4,-0.4,0.78,43.23,29.07,-18.07,4
2945451,0.65,0.03,0.73,1.48,0.11,0.82,43.23,29.07,-18.07,4
2945461,0.65,0.03,0.73,1.46,0.42,0.68,43.23,29.07,-18.07,4
2945472,0.65,0.03,0.73,1.56,0.54,0.55,43.23,29.07,-18.07,4
2945482,0.65,0.03,0.73,1.59,0.48,0.42,43.23,29.07,-18.07,4
2945494,0.65,0.03,0.73,1.22,0.3,0.34,43.34,29.03,-18.01,4
2945506,0.65,0.03,0.73,1.21,0.29,0.36,43.34,29.03,-18.01,4
2945518,0.65,0.04,0.73,1.46,0.19,0.17,43.34,29.03,-18.01,4
2945529,0.65,0.04,0.73,1.69,0.1,-0.06,43.34,29.03,-18.01,4
2945539,0.65,0.03,0.73,1.88,-0.02,-0.31,43.3,29.04,-17.74,4
2945552,0.65,0.03,0.73,1.86,-0.4,-0.46,43.3,29.04,-17.74,4
2945563,0.65,0.03,0.73,1.77,-0.47,-0.23,43.3,29.04,-17.74,4
2945574,0.65,0.03,0.73,1.7,-0.52,-0.01,43.3,29.04,-17.74,4
2945585,0.65,0.03,0.73,1.6,-0.58,0.12,43.32,29.03,-17.91,4
2945597,0.65,0.03,0.73,1.71,-0.62,0.07,43.32,29.03,-17.91,4
2945609,0.65,0.04,0.73,1.94,-0.54,-0.17,43.32,29.03,-17.91,4
2945621,0.65,0.03,0.73,2.22,-0.6,-0.7,43.32,29.03,-17.91,4
2945632,0.65,0.03,0.73,2.13,-0.7,-0.76,43.32,29.03,-17.91,4
2945643,0.65,0.02,0.73,2.01,-0.76,-0.64,43.2,29.0,-17.65,4
2945653,0.65,0.02,0.73,1.78,-0.85,-0.39,43.2,29.0,-17.65,4
2945663,0.65,0.03,0.73,1.47,-0.92,-0.11,43.2,29.0,-17.65,4
2945674,0.65,0.03,0.73,1.46,-0.95,0.15,43.2,29.0,-17.65,4
2945687,0.65,0.03,0.73,1.51,-1.05,0.05,43.19,28.93,-17.5,4
2945700,0.65,0.03,0.73,1.6,-1.12,0.02,43.19,28.93,-17.5,4
2945711,0.65,0.03,0.73,1.65,-1.02,-0.02,43.19,28.93,-17.5,4
2945724,0.65,0.03,0.73,1.9,-0.98,-0.24,43.19,28.93,-17.5,4
2945736,0.65,0.03,0.73,2.04,-0.98,-0.43,43.28,28.94,-17.43,4
2945746,0.65,0.03,0.73,2.0,-0.94,-0.71,43.28,28.94,-17.43,4
2945756,0.65,0.03,0.73,2.03,-0.96,-0.85,43.28,28.94,-17.43,4
2945769,0.65,0.03,0.73,1.96,-0.77,-0.39,43.28,28.94,-17.43,4
2945781,0.65,0.02,0.73,1.86,-0.68,-0.2,43.28,28.94,-17.43,4
2945791,0.65,0.03,0.73,1.72,-0.68,-0.07,43.28,28.92,-17.19,4
2945803,0.65,0.03,0.73,1.56,-0.67,0.1,43.28,28.92,-17.19,4
2945815,0.65,0.03,0.73,1.73,-0.61,0.05,43.28,28.92,-17.19,4
2945825,0.65,0.03,0.73,1.83,-0.57,-0.06,43.28,28.92,-17.19,4
2945836,0.65,0.03,0.73,1.92,-0.57,-0.05,43.29,28.95,-17.17,4
2945848,0.65,0.03,0.73,1.9,-0.59,-0.01,43.29,28.95,-17.17,4
2945860,0.65,0.03,0.73,1.73,-0.56,0.06,43.29,28.95,-17.17,4
2945871,0.65,0.03,0.73,1.49,-0.44,0.58,43.29,28.95,-17.17,4
2945883,0.65,0.03,0.73,1.48,-0.4,0.66,43.29,28.95,-17.17,4
2945894,0.65,0.03,0.73,1.45,-0.43,0.58,43.3,28.98,-17.07,4
2945904,0.65,0.03,0.73,1.79,-0.35,0.21,43.3,28.98,-17.07,4
2945915,0.65,0.03,0.73,2.0,-0.36,-0.05,43.3,28.98,-17.07,4
2945927,0.65,0.03,0.73,2.03,-0.34,-0.26,43.3,28.98,-17.07,4
2945937,0.65,0.03,0.73,1.96,-0.31,-0.27,43.3,28.9,-17.11,4
2945949,0.65,0.03,0.73,1.64,-0.15,0.13,43.3,28.9,-17.11,4
2945961,0.65,0.03,0.73,1.53,0.0,0.33,43.3,28.9,-17.11,4
2945973,0.65,0.03,0.73,1.79,0.14,0.32,43.3,28.9,-17.11,4
2945985,0.65,0.03,0.73,1.98,0.15,0.1,43.44,28.97,-17.32,4
2945996,0.65,0.03,0.73,2.03,0.16,-0.09,43.44,28.97,-17.32,4
2946009,0.65,0.03,0.73,1.92,0.21,-0.14,43.44,28.97,-17.32,4
2946021,0.65,0.03,0.73,1.81,0.23,0.04,43.44,28.97,-17.32,4
2946033,0.65,0.03,0.73,1.44,0.16,0.42,43.44,28.97,-17.32,4
2946045,0.66,0.03,0.73,1.37,0.13,0.45,43.47,28.92,-17.44,4
2946056,0.66,0.03,0.73,1.31,0.07,0.38,43.47,28.92,-17.44,4
2946069,0.66,0.03,0.73,1.58,0.04,0.27,43.47,28.92,-17.44,4
2946081,0.65,0.03,0.73,1.74,-0.04,0.06,43.47,28.92,-17.44,4
2946092,0.65,0.03,0.73,1.79,-0.16,-0.17,43.46,29.0,-17.56,4
2946103,0.66,0.03,0.73,1.67,-0.27,-0.15,43.46,29.0,-17.56,4
2946115,0.66,0.03,0.73,1.72,-0.18,0.07,43.46,29.0,-17.56,4
2946127,0.66,0.03,0.73,1.76,-0.2,0.32,43.46,29.0,-17.56,4
2946139,0.66,0.03,0.73,1.73,-0.2,0.4,43.42,28.94,-17.63,4
2946150,0.66,0.02,0.73,1.73,-0.14,0.48,43.42,28.94,-17.63,4
2946164,0.66,0.03,0.73,1.43,-0.06,0.6,43.42,28.94,-17.63,4
2946174,0.66,0.03,0.72,1.33,-0.06,0.68,43.42,28.94,-17.63,4
2946184,0.66,0.03,0.72,1.31,-0.05,0.67,43.41,28.95,-17.76,4
2946198,0.66,0.03,0.72,1.57,-0.15,0.26,43.41,28.95,-17.76,4
2946208,0.66,0.03,0.72,1.74,-0.19,-0.03,43.41,28.95,-17.76,4
2946218,0.66,0.03,0.73,1.9,-0.24,-0.16,43.41,28.95,-17.76,4
2946229,0.66,0.03,0.73,1.97,-0.27,-0.16,43.41,28.95,-17.76,4
2946242,0.66,0.03,0.73,1.85,-0.24,0.14,43.42,28.98,-17.58,4
2946253,0.66,0.03,0.72,1.82,-0.26,0.2,43.42,28.98,-17.58,4
2946267,0.66,0.03,0.72,1.7,-0.25,0.39,43.42,28.98,-17.58,4
2946277,0.66,0.03,0.72,1.79,-0.22,0.4,43.42,28.98,-17.58,4
2946287,0.66,0.03,0.72,1.95,-0.29,0.2,43.34,29.0,-17.71,4
2946301,0.66,0.03,0.72,2.01,-0.54,-0.36,43.34,29.0,-17.71,4
2946311,0.66,0.03,0.72,2.0,-0.55,-0.43,43.34,29.0,-17.71,4
2946322,0.66,0.03,0.72,1.92,-0.55,-0.43,43.34,29.0,-17.71,4
2946337,0.66,0.03,0.72,1.77,-0.56,-0.32,43.33,28.94,-17.67,4
2946348,0.66,0.03,0.72,1.79,-0.63,-0.3,43.33,28.94,-17.67,4
2946362,0.66,0.03,0.72,1.82,-0.73,-0.31,43.33,28.94,-17.67,4
2946373,0.66,0.03,0.72,1.77,-0.74,-0.17,43.33,28.94,-17.67,4
2946384,0.66,0.03,0.72,1.79,-0.71,-0.04,43.17,28.92,-17.61,4
2946396,0.66,0.03,0.72,1.74,-0.75,0.08,43.17,28.92,-17.61,4
2946406,0.66,0.03,0.72,1.67,-0.79,0.06,43.17,28.92,-17.61,4
2946417,0.66,0.03,0.72,1.69,-0.87,0.09,43.17,28.92,-17.61,4
2946430,0.66,0.03,0.72,1.52,-0.88,0.24,43.17,28.92,-17.61,4
2946441,0.66,0.03,0.72,1.37,-0.88,0.4,43.18,28.85,-17.72,4
2946453,0.66,0.03,0.72,1.4,-0.82,0.55,43.18,28.85,-17.72,4
2946464,0.66,0.03,0.72,1.49,-0.77,0.39,43.18,28.85,-17.72,4
2946476,0.66,0.03,0.72,1.56,-0.76,0.25,43.18,28.85,-17.72,4
2946487,0.66,0.03,0.72,1.7,-0.74,0.09,43.19,28.94,-17.66,4
2946498,0.66,0.03,0.72,1.67,-0.75,-0.02,43.19,28.94,-17.66,4
2946510,0.66,0.03,0.72,1.64,-0.74,0.04,43.19,28.94,-17.66,4
2946520,0.66,0.03,0.72,1.64,-0.75,0.1,43.19,28.94,-17.66,4
2946534,0.66,0.03,0.72,1.75,-0.8,0.0,43.12,28.92,-17.72,4
2946546,0.66,0.03,0.72,1.89,-0.83,-0.13,43.12,28.92,-17.72,4
2946556,0.66,0.03,0.72,2.04,-0.87,-0.37,43.12,28.92,-17.72,4
2946567,0.66,0.02,0.72,2.02,-0.83,-0.46,43.12,28.92,-17.72,4
2946579,0.66,0.02,0.72,1.82,-0.77,-0.35,43.12,28.92,-17.72,4
2946590,0.66,0.03,0.72,1.63,-0.8,-0.2,43.14,28.93,-17.84,4
2946602,0.66,0.03,0.72,1.35,-0.74,0.23,43.14,28.93,-17.84,4
2946612,0.66,0.03,0.72,1.43,-0.7,0.29,43.14,28.93,-17.84,4
2946623,0.66,0.03,0.72,1.61,-0.72,0.16,43.14,28.93,-17.84,4
2946634,0.66,0.03,0.72,1.75,-0.75,-0.03,43.25,28.82,-17.55,4
2946645,0.66,0.03,0.72,1.91,-0.81,-0.25,43.25,28.82,-17.55,4
2946656,0.66,0.03,0.72,2.11,-0.92,-0.6,43.25,28.82,-17.55,4
2946669,0.66,0.03,0.72,2.27,-1.17,-1.04,43.25,28.82,-17.55,4
2946680,0.66,0.03,0.72,2.27,-1.25,-1.15,43.25,28.82,-17.55,4
2946691,0.66,0.02,0.72,2.25,-1.31,-1.15,43.27,28.73,-17.35,4
2946701,0.66,0.02,0.72,2.17,-1.34,-1.14,43.27,28.73,-17.35,4
2946712,0.66,0.02,0.72,1.85,-1.5,-1.03,43.27,28.73,-17.35,4
2946722,0.66,0.02,0.72,1.82,-1.57,-0.92,43.27,28.73,-17.35,4
2946733,0.66,0.03,0.72,1.78,-1.62,-0.89,43.2,28.76,-17.1,4
2946746,0.66,0.03,0.72,1.77,-1.58,-0.7,43.2,28.76,-17.1,4
2946757,0.66,0.03,0.72,1.82,-1.5,-0.57,43.2,28.76,-17.1,4
2946769,0.66,0.03,0.72,1.91,-1.42,-0.55,43.2,28.76,-17.1,4
2946782,0.66,0.03,0.72,2.15,-1.37,-0.76,43.2,28.76,-17.1,4
2946793,0.66,0.03,0.72,2.22,-1.43,-0.82,43.18,28.85,-17.07,4
2946805,0.66,0.03,0.72,2.29,-1.51,-0.88,43.18,28.85,-17.07,4
2946816,0.66,0.03,0.72,2.44,-1.67,-1.14,43.18,28.85,-17.07,4
2946828,0.66,0.02,0.72,2.39,-1.75,-1.23,43.18,28.85,-17.07,4
2946839,0.66,0.02,0.72,2.25,-1.82,-1.14,43.12,28.94,-17.19,4
2946851,0.66,0.02,0.72,1.97,-1.71,-0.7,43.12,28.94,-17.19,4
2946862,0.66,0.02,0.72,1.78,-1.55,-0.48,43.12,28.94,-17.19,4
2946873,0.66,0.02,0.72,1.59,-1.45,-0.28,43.12,28.94,-17.19,4
2946886,0.66,0.02,0.72,1.6,-1.18,-0.0,43.06,29.03,-17.37,4
2946897,0.66,0.03,0.72,1.7,-1.11,0.04,43.06,29.03,-17.37,4
2946910,0.66,0.03,0.72,1.74,-1.14,-0.24,43.06,29.03,-17.37,4
2946922,0.66,0.03,0.72,1.95,-1.25,-0.43,43.06,29.03,-17.37,4
2946933,0.66,0.03,0.72,2.1,-1.33,-0.51,42.98,29.01,-17.51,4
2946945,0.66,0.02,0.73,2.06,-1.33,-0.38,42.98,29.01,-17.51,4
2946955,0.66,0.02,0.73,1.97,-1.32,-0.22,42.98,29.01,-17.51,4
2946965,0.66,0.02,0.72,1.9,-1.32,-0.01,42.98,29.01,-17.51,4
2946975,0.66,0.02,0.72,1.88,-1.3,0.18,42.98,29.01,-17.51,4
2946986,0.66,0.02,0.72,1.83,-1.22,0.34,43.07,29.0,-17.47,4
2946997,0.66,0.02,0.72,1.76,-1.19,0.34,43.07,29.0,-17.47,4
2947008,0.66,0.02,0.72,1.71,-1.13,0.34,43.07,29.0,-17.47,4
2947021,0.66,0.03,0.72,1.89,-0.95,0.35,43.07,29.0,-17.47,4
2947033,0.66,0.03,0.72,2.05,-0.95,0.16,42.98,28.87,-17.56,4
2947043,0.66,0.03,0.72,2.17,-0.99,-0.06,42.98,28.87,-17.56,4
2947053,0.66,0.02,0.72,2.21,-1.0,-0.28,42.98,28.87,-17.56,4
2947064,0.66,0.02,0.72,2.13,-1.14,-0.35,42.98,28.87,-17.56,4
2947075,0.66,0.02,0.73,1.98,-1.15,-0.17,42.98,28.87,-17.56,4
2947086,0.66,0.02,0.72,1.81,-1.13,0.03,43.05,28.83,-17.33,4
2947098,0.66,0.02,0.72,1.5,-1.05,0.42,43.05,28.83,-17.33,4
2947109,0.66,0.02,0.72,1.36,-1.02,0.54,43.05,28.83,-17.33,4
2947119,0.66,0.02,0.72,1.38,-1.03,0.56,43.05,28.83,-17.33,4
2947129,0.66,0.02,0.72,1.47,-1.01,0.45,43.05,28.83,-17.33,4
2947140,0.66,0.03,0.72,1.52,-1.03,0.34,42.98,28.81,-17.35,4
2947151,0.66,0.02,0.72,1.58,-1.07,0.18,42.98,28.81,-17.35,4
2947163,0.66,0.02,0.72,1.6,-1.15,0.18,42.98,28.81,-17.35,4
2947177,0.66,0.02,0.72,1.61,-1.15,0.18,42.98,28.81,-17.35,4
2947187,0.66,0.02,0.72,1.59,-1.12,0.2,42.93,28.79,-17.34,4
2947199,0.66,0.02,0.72,1.64,-1.12,0.18,42.93,28.79,-17.34,4
2947210,0.66,0.02,0.72,1.63,-1.1,-0.09,42.93,28.79,-17.34,4
2947221,0.66,0.03,0.72,1.69,-1.12,-0.24,42.93,28.79,-17.34,4
2947233,0.66,0.03,0.72,1.79,-1.07,-0.38,43.04,28.75,-17.44,4
2947245,0.66,0.03,0.72,1.91,-1.09,-0.5,43.04,28.75,-17.44,4
2947257,0.66,0.02,0.72,1.99,-1.09,-0.54,43.04,28.75,-17.44,4
2947268,0.66,0.02,0.72,2.05,-1.15,-0.51,43.04,28.75,-17.44,4
2947281,0.66,0.02,0.72,1.83,-1.22,-0.17,43.04,28.75,-17.44,4
2947292,0.66,0.02,0.72,1.71,-1.22,-0.01,43.08,28.81,-17.49,4
2947302,0.66,0.02,0.72,1.6,-1.23,0.06,43.08,28.81,-17.49,4
2947312,0.66,0.02,0.72,1.62,-1.24,0.07,43.08,28.81,-17.49,4
2947323,0.66,0.02,0.72,1.59,-1.21,0.07,43.08,28.81,-17.49,4
2947334,0.66,0.03,0.72,1.61,-1.17,0.05,43.07,28.8,-17.53,4
2947346,0.66,0.03,0.72,1.66,-1.12,-0.01,43.07,28.8,-17.53,4
2947358,0.66,0.02,0.72,1.74,-0.99,-0.05,43.07,28.8,-17.53,4
2947368,0.66,0.02,0.72,1.76,-1.08,-0.11,43.07,28.8,-17.53,4
2947378,0.66,0.02,0.72,1.72,-1.21,-0.21,43.07,28.8,-17.53,4
2947389,0.66,0.02,0.72,1.7,-1.26,-0.23,43.03,28.85,-17.47,4
2947401,0.66,0.02,0.72,1.9,-1.17,-0.15,43.03,28.85,-17.47,4
2947411,0.66,0.02,0.72,1.86,-1.12,-0.1,43.03,28.85,-17.47,4
2947421,0.66,0.02,0.72,1.79,-1.1,-0.01,43.03,28.85,-17.47,4
2947431,0.66,0.02,0.72,1.81,-1.11,0.08,43.03,28.85,-17.47,4
2947444,0.66,0.03,0.72,1.93,-1.09,0.0,43.08,28.87,-17.56,4
2947455,0.66,0.03,0.72,2.07,-1.12,-0.27,43.08,28.87,-17.56,4
2947468,0.66,0.02,0.72,2.23,-1.23,-0.53,43.08,28.87,-17.56,4
2947479,0.66,0.02,0.72,2.13,-1.25,-0.46,43.08,28.87,-17.56,4
2947490,0.66,0.02,0.72,1.95,-1.26,-0.36,43.2,28.81,-17.42,4
2947500,0.66,0.02,0.72,1.82,-1.22,-0.21,43.2,28.81,-17.42,4
2947512,0.66,0.02,0.72,1.7,-1.25,-0.02,43.2,28.81,-17.42,4
2947522,0.66,0.02,0.72,1.75,-1.26,-0.1,43.2,28.81,-17.42,4
2947533,0.66,0.02,0.72,1.91,-1.24,-0.31,43.35,28.81,-17.41,4
2947543,0.66,0.02,0.72,1.98,-1.29,-0.52,43.35,28.81,-17.41,4
2947555,0.66,0.02,0.72,1.89,-1.23,-0.44,43.35,28.81,-17.41,4
2947565,0.66,0.02,0.72,1.85,-1.16,-0.28,43.35,28.81,-17.41,4
2947575,0.66,0.02,0.72,1.75,-1.13,-0.24,43.35,28.81,-17.41,4
2947586,0.66,0.02,0.72,1.74,-1.13,-0.22,43.29,28.93,-17.46,4
2947598,0.66,0.02,0.72,1.89,-1.1,-0.43,43.29,28.93,-17.46,4
2947608,0.66,0.02,0.72,1.89,-1.1,-0.55,43.29,28.93,-17.46,4
2947619,0.66,0.02,0.72,1.95,-1.11,-0.55,43.29,28.93,-17.46,4
2947630,0.66,0.02,0.72,2.1,-1.12,-0.49,43.29,28.93,-17.46,4
2947642,0.66,0.02,0.72,2.03,-1.1,-0.4,43.32,28.94,-17.51,4
2947654,0.66,0.02,0.72,1.92,-0.99,-0.28,43.32,28.94,-17.51,4
2947665,0.66,0.02,0.72,1.98,-0.95,-0.34,43.32,28.94,-17.51,4
2947676,0.66,0.02,0.72,1.99,-1.09,-0.49,43.32,28.94,-17.51,4
2947687,0.66,0.02,0.72,1.98,-1.19,-0.55,43.3,28.97,-17.41,4
2947700,0.66,0.02,0.72,1.99,-1.15,-0.47,43.3,28.97,-17.41,4
2947712,0.66,0.02,0.72,1.86,-1.18,-0.31,43.3,28.97,-17.41,4
2947725,0.66,0.02,0.72,1.59,-1.05,0.22,43.3,28.97,-17.41,4
2947737,0.66,0.02,0.72,1.63,-1.01,0.28,43.26,29.02,-17.26,4
2947747,0.66,0.02,0.72,1.74,-0.97,0.16,43.26,29.02,-17.26,4
2947757,0.66,0.02,0.72,1.89,-0.92,-0.05,43.26,29.02,-17.26,4
2947768,0.66,0.02,0.72,2.1,-0.95,-0.39,43.26,29.02,-17.26,4
2947779,0.66,0.02,0.72,2.08,-0.99,-0.37,43.26,29.02,-17.26,4
2947790,0.66,0.02,0.72,2.04,-0.96,-0.19,43.18,29.06,-17.31,4
2947802,0.66,0.02,0.72,1.85,-0.91,0.21,43.18,29.06,-17.31,4
2947813,0.66,0.02,0.72,1.74,-1.0,0.36,43.18,29.06,-17.31,4
2947825,0.66,0.02,0.72,1.64,-1.14,0.35,43.18,29.06,-17.31,4
2947836,0.66,0.02,0.72,1.49,-1.33,0.32,43.17,29.1,-17.42,4
2947847,0.66,0.02,0.72,1.45,-1.28,0.31,43.17,29.1,-17.42,4
2947859,0.66,0.02,0.72,1.55,-1.18,0.2,43.17,29.1,-17.42,4
2947871,0.66,0.02,0.72,1.83,-1.2,-0.2,43.17,29.1,-17.42,4
2947883,0.66,0.02,0.72,1.83,-1.23,-0.32,43.17,29.15,-17.41,4
2947895,0.66,0.02,0.72,1.82,-1.2,-0.3,43.17,29.15,-17.41,4
2947907,0.66,0.02,0.72,1.79,-1.04,-0.06,43.17,29.15,-17.41,4
2947918,0.66,0.02,0.72,1.73,-1.01,0.13,43.17,29.15,-17.41,4
2947932,0.66,0.02,0.72,1.7,-1.01,0.29,43.24,29.17,-17.52,4
2947944,0.66,0.02,0.72,1.7,-1.03,0.28,43.24,29.17,-17.52,4
2947954,0.66,0.02,0.72,1.61,-1.01,0.23,43.24,29.17,-17.52,4
2947967,0.66,0.02,0.72,1.47,-1.13,0.21,43.24,29.17,-17.52,4
2947979,0.66,0.02,0.72,1.51,-1.13,0.18,43.24,29.17,-17.52,4
2947990,0.66,0.02,0.72,1.57,-1.13,0.02,43.13,29.09,-17.69,4
2948002,0.66,0.02,0.72,1.77,-0.99,-0.41,43.13,29.09,-17.69,4
2948012,0.66,0.02,0.72,1.81,-0.93,-0.53,43.13,29.09,-17.69,4
2948022,0.66,0.02,0.72,1.81,-0.97,-0.52,43.13,29.09,-17.69,4
2948033,0.66,0.02,0.72,1.86,-0.97,-0.4,43.17,29.12,-17.8,4
2948045,0.66,0.02,0.72,1.78,-1.1,-0.18,43.17,29.12,-17.8,4
2948055,0.66,0.02,0.72,1.7,-1.1,-0.08,43.17,29.12,-17.8,4
2948065,0.66,0.02,0.72,1.73,-1.1,0.08,43.17,29.12,-17.8,4
2948075,0.66,0.02,0.72,1.79,-1.06,0.1,43.17,29.12,-17.8,4
2948088,0.66,0.02,0.72,1.56,-1.15,0.06,43.25,29.11,-17.8,4
2948099,0.66,0.02,0.72,1.46,-1.07,0.15,43.25,29.11,-17.8,4
2948113,0.66,0.02,0.72,1.39,-0.97,-0.02,43.25,29.11,-17.8,4
2948123,0.66,0.02,0.72,1.43,-1.03,-0.13,43.25,29.11,-17.8,4
2948134,0.66,0.02,0.72,1.59,-1.07,-0.2,43.26,29.13,-17.64,4
2948147,0.66,0.02,0.72,1.8,-1.2,-0.52,43.26,29.13,-17.64,4
2948159,0.66,0.02,0.72,1.79,-1.25,-0.57,43.26,29.13,-17.64,4
2948171,0.66,0.02,0.72,1.84,-1.24,-0.36,43.26,29.13,-17.64,4
2948183,0.66,0.02,0.72,1.8,-1.25,-0.24,43.29,28.99,-17.74,4
2948195,0.66,0.02,0.72,1.75,-1.22,-0.08,43.29,28.99,-17.74,4
2948206,0.66,0.01,0.72,1.49,-1.18,0.24,43.29,28.99,-17.74,4
2948217,0.66,0.02,0.72,1.39,-1.15,0.47,43.29,28.99,-17.74,4
2948227,0.66,0.02,0.72,1.31,-1.08,0.65,43.29,28.99,-17.74,4
2948238,0.66,0.02,0.72,1.32,-1.05,0.68,43.3,28.94,-17.39,4
2948249,0.66,0.02,0.72,1.4,-0.98,0.39,43.3,28.94,-17.39,4
2948260,0.66,0.02,0.72,1.48,-1.08,0.24,43.3,28.94,-17.39,4
2948270,0.66,0.02,0.72,1.61,-1.16,0.12,43.3,28.94,-17.39,4
2948281,0.66,0.02,0.72,1.66,-1.2,-0.04,43.31,28.92,-17.31,4
2948292,0.66,0.02,0.72,1.64,-1.36,-0.25,43.31,28.92,-17.31,4
2948303,0.66,0.02,0.72,1.76,-1.32,-0.26,43.31,28.92,-17.31,4
2948314,0.66,0.02,0.72,1.97,-1.3,-0.26,43.31,28.92,-17.31,4
2948328,0.66,0.02,0.72,1.97,-1.21,-0.22,43.31,28.92,-17.31,4
2948339,0.66,0.02,0.72,1.85,-1.18,-0.11,43.39,28.85,-17.28,4
2948350,0.66,0.02,0.72,1.7,-1.16,0.04,43.39,28.85,-17.28,4
2948362,0.66,0.02,0.72,1.42,-1.11,0.17,43.39,28.85,-17.28,4
2948374,0.66,0.03,0.72,1.47,-1.16,0.11,43.39,28.85,-17.28,4
2948385,0.66,0.02,0.72,1.68,-1.17,-0.05,43.33,28.89,-17.19,4
2948396,0.66,0.02,0.72,2.17,-1.29,-0.43,43.33,28.89,-17.19,4
2948407,0.66,0.02,0.72,2.25,-1.29,-0.56,43.33,28.89,-17.19,4
2948417,0.66,0.01,0.72,2.13,-1.31,-0.55,43.33,28.89,-17.19,4
2948427,0.66,0.02,0.72,1.91,-1.32,-0.35,43.33,28.89,-17.19,4
2948440,0.66,0.02,0.72,1.65,-1.33,0.13,43.3,28.94,-17.41,4
2948450,0.66,0.02,0.72,1.54,-1.28,0.13,43.3,28.94,-17.41,4
2948460,0.66,0.02,0.72,1.51,-1.18,0.05,43.3,28.94,-17.41,4
2948470,0.66,0.02,0.72,1.6,-1.1,-0.07,43.3,28.94,-17.41,4
2948482,0.66,0.02,0.72,1.71,-1.07,-0.34,43.17,28.97,-17.4,4
2948492,0.66,0.02,0.72,1.58,-1.09,-0.33,43.17,28.97,-17.4,4
2948502,0.66,0.02,0.72,1.36,-1.06,-0.23,43.17,28.97,-17.4,4
2948512,0.66,0.02,0.72,1.25,-1.04,-0.11,43.17,28.97,-17.4,4
2948522,0.66,0.02,0.72,1.25,-1.07,-0.04,43.17,28.97,-17.4,4
2948535,0.66,0.02,0.72,1.37,-1.09,0.09,43.21,28.91,-17.32,4
2948545,0.66,0.02,0.72,1.53,-1.11,0.11,43.21,28.91,-17.32,4
2948555,0.66,0.02,0.72,1.56,-1.11,0.07,43.21,28.91,-17.32,4
2948565,0.66,0.02,0.72,1.5,-1.1,0.15,43.21,28.91,-17.32,4
2948577,0.66,0.02,0.72,1.36,-1.14,0.29,43.21,28.91,-17.32,4
2948588,0.66,0.02,0.72,1.36,-1.14,0.21,43.35,28.86,-17.31,4
2948599,0.66,0.03,0.72,1.49,-1.15,0.1,43.35,28.86,-17.31,4
2948611,0.66,0.02,0.72,1.86,-1.16,-0.27,43.35,28.86,-17.31,4
2948623,0.66,0.02,0.72,1.9,-1.24,-0.38,43.35,28.86,-17.31,4
2948634,0.66,0.02,0.72,1.77,-1.34,-0.26,43.42,28.94,-17.17,4
2948646,0.66,0.02,0.72,1.53,-1.31,0.26,43.42,28.94,-17.17,4
2948656,0.66,0.02,0.72,1.37,-1.31,0.36,43.42,28.94,-17.17,4
2948666,0.66,0.02,0.72,1.32,-1.36,0.39,43.42,28.94,-17.17,4
2948676,0.66,0.02,0.72,1.5,-1.36,0.33,43.42,28.94,-17.17,4
2948689,0.66,0.02,0.72,1.68,-1.51,0.07,43.51,29.09,-17.2,4
2948700,0.66,0.02,0.72,1.54,-1.51,0.01,43.51,29.09,-17.2,4
2948713,0.66,0.02,0.72,1.42,-1.46,0.03,43.51,29.09,-17.2,4
2948724,0.66,0.02,0.72,1.39,-1.41,0.06,43.51,29.09,-17.2,4
2948735,0.66,0.02,0.72,1.45,-1.27,0.09,43.5,29.14,-17.12,4
2948745,0.66,0.02,0.72,1.51,-1.18,0.03,43.5,29.14,-17.12,4
2948756,0.66,0.02,0.72,1.5,-1.25,-0.13,43.5,29.14,-17.12,4
2948767,0.66,0.02,0.72,1.58,-1.27,-0.06,43.5,29.14,-17.12,4
2948777,0.66,0.02,0.72,1.69,-1.24,-0.01,43.5,29.14,-17.12,4
2948788,0.66,0.02,0.72,1.74,-1.19,0.01,43.48,29.11,-17.11,4
2948800,0.66,0.02,0.73,1.71,-1.15,0.02,43.48,29.11,-17.11,4
2948811,0.66,0.02,0.72,1.72,-1.19,0.03,43.48,29.11,-17.11,4
2948823,0.66,0.02,0.72,1.73,-1.21,0.03,43.48,29.11,-17.11,4
2948835,0.66,0.02,0.72,1.6,-1.17,0.12,43.47,29.05,-17.31,4
2948847,0.66,0.02,0.72,1.65,-1.05,0.18,43.47,29.05,-17.31,4
2948860,0.66,0.02,0.72,1.59,-0.91,0.26,43.47,29.05,-17.31,4
2948872,0.66,0.02,0.72,1.64,-0.88,0.25,43.47,29.05,-17.31,4
2948883,0.66,0.02,0.72,1.77,-0.96,0.16,43.54,28.95,-17.33,4
2948895,0.66,0.02,0.72,1.8,-1.06,0.13,43.54,28.95,-17.33,4
2948905,0.66,0.02,0.72,1.79,-1.0,0.23,43.54,28.95,-17.33,4
2948915,0.66,0.02,0.72,1.79,-1.0,0.35,43.54,28.95,-17.33,4
2948925,0.66,0.02,0.72,1.59,-1.07,0.5,43.54,28.95,-17.33,4
2948938,0.66,0.02,0.72,1.23,-1.02,0.94,43.48,29.09,-17.36,4
2948949,0.66,0.02,0.72,1.13,-0.94,1.1,43.48,29.09,-17.36,4
2948962,0.66,0.03,0.72,1.27,-0.73,0.84,43.48,29.09,-17.36,4
2948973,0.66,0.03,0.72,1.53,-0.66,0.58,43.48,29.09,-17.36,4
2948984,0.66,0.03,0.72,1.91,-0.58,0.23,43.41,29.06,-17.39,4
2948994,0.66,0.02,0.72,2.16,-0.56,-0.1,43.41,29.06,-17.39,4
2949005,0.66,0.02,0.73,2.19,-0.54,-0.19,43.41,29.06,-17.39,4
2949016,0.66,0.02,0.72,2.26,-0.46,-0.09,43.41,29.06,-17.39,4
2949026,0.66,0.02,0.72,2.18,-0.48,-0.0,43.41,29.06,-17.39,4
2949037,0.66,0.02,0.72,2.03,-0.5,0.16,43.44,29.0,-17.28,4
2949049,0.66,0.02,0.72,1.94,-0.44,0.3,43.44,29.0,-17.28,4
2949059,0.66,0.02,0.72,1.88,-0.45,0.29,43.44,29.0,-17.28,4
2949069,0.66,0.02,0.72,1.83,-0.51,0.29,43.44,29.0,-17.28,4
2949079,0.66,0.02,0.72,1.88,-0.55,0.23,43.5,29.05,-17.4,4
2949090,0.66,0.02,0.72,1.99,-0.72,-0.22,43.5,29.05,-17.4,4
2949102,0.66,0.02,0.72,1.86,-0.74,-0.39,43.5,29.05,-17.4,4
2949112,0.66,0.02,0.72,1.8,-0.75,-0.39,43.5,29.05,-17.4,4
2949122,0.66,0.02,0.72,1.81,-0.72,-0.33,43.5,29.05,-17.4,4
2949135,0.66,0.02,0.72,1.83,-0.72,-0.17,43.53,28.96,-17.5,4
2949146,0.66,0.02,0.72,1.93,-0.74,-0.24,43.53,28.96,-17.5,4
2949159,0.66,0.02,0.72,1.84,-0.87,-0.49,43.53,28.96,-17.5,4
2949170,0.66,0.02,0.72,1.8,-0.94,-0.38,43.53,28.96,-17.5,4
2949181,0.66,0.02,0.72,1.78,-0.88,-0.19,43.52,28.96,-17.44,4
2949195,0.66,0.02,0.72,1.63,-0.85,0.05,43.52,28.96,-17.44,4
2949205,0.66,0.02,0.72,1.43,-0.85,0.09,43.52,28.96,-17.44,4
2949215,0.66,0.02,0.72,1.29,-0.85,0.16,43.52,28.96,-17.44,4
2949225,0.66,0.02,0.72,1.23,-0.87,0.13,43.52,28.96,-17.44,4
2949238,0.66,0.03,0.72,1.41,-0.83,-0.01,43.5,28.93,-17.23,4
2949248,0.66,0.03,0.72,1.64,-0.81,-0.17,43.5,28.93,-17.23,4
2949258,0.66,0.02,0.72,1.86,-0.83,-0.35,43.5,28.93,-17.23,4
2949268,0.66,0.02,0.72,1.91,-0.89,-0.46,43.5,28.93,-17.23,4
2949278,0.66,0.02,0.72,1.86,-0.92,-0.44,43.5,28.93,-17.23,4
2949291,0.66,0.02,0.72,1.9,-0.96,-0.34,43.51,28.8,-17.14,4
2949301,0.66,0.02,0.72,1.79,-0.98,-0.29,43.51,28.8,-17.14,4
2949313,0.66,0.02,0.72,1.72,-1.01,0.02,43.51,28.8,-17.14,4
2949324,0.66,0.02,0.72,1.7,-1.0,0.14,43.51,28.8,-17.14,4
2949335,0.66,0.02,0.72,1.6,-1.04,0.19,43.59,28.87,-17.28,4
2949348,0.66,0.02,0.72,1.59,-1.04,0.05,43.59,28.87,-17.28,4
2949359,0.66,0.02,0.72,1.66,-1.03,-0.16,43.59,28.87,-17.28,4
2949370,0.66,0.02,0.72,1.78,-1.04,-0.31,43.59,28.87,-17.28,4
2949382,0.66,0.02,0.72,1.91,-0.97,-0.33,43.68,28.9,-17.03,4
2949393,0.66,0.02,0.72,1.9,-1.03,-0.39,43.68,28.9,-17.03,4
2949405,0.66,0.02,0.72,1.83,-1.01,-0.37,43.68,28.9,-17.03,4
2949419,0.66,0.02,0.72,1.71,-0.95,-0.13,43.68,28.9,-17.03,4
2949430,0.66,0.02,0.72,1.63,-0.93,0.01,43.58,28.89,-17.06,4
2949440,0.66,0.02,0.72,1.55,-0.88,0.21,43.58,28.89,-17.06,4
2949450,0.66,0.02,0.72,1.5,-0.85,0.35,43.58,28.89,-17.06,4
2949462,0.66,0.02,0.72,1.51,-0.94,0.16,43.58,28.89,-17.06,4
2949473,0.66,0.02,0.72,1.56,-1.0,0.03,43.58,28.89,-17.06,4
2949485,0.66,0.02,0.72,1.85,-0.96,-0.14,43.5,29.0,-17.02,4
2949496,0.66,0.02,0.72,1.82,-0.99,-0.24,43.5,29.0,-17.02,4
2949508,0.66,0.02,0.72,1.71,-1.04,-0.25,43.5,29.0,-17.02,4
2949521,0.66,0.02,0.72,1.86,-1.07,-0.14,43.5,29.0,-17.02,4
2949532,0.66,0.02,0.72,1.89,-1.08,-0.01,43.49,29.05,-17.02,4
2949544,0.66,0.02,0.72,1.85,-1.04,0.07,43.49,29.05,-17.02,4
2949556,0.66,0.02,0.72,1.74,-1.04,0.14,43.49,29.05,-17.02,4
2949566,0.66,0.02,0.72,1.69,-1.07,0.2,43.49,29.05,-17.02,4
2949576,0.66,0.02,0.72,1.64,-1.05,0.24,43.49,29.05,-17.02,4
2949587,0.66,0.02,0.72,1.66,-1.05,0.21,43.43,29.03,-17.09,4
2949598,0.66,0.02,0.72,1.52,-0.99,0.07,43.43,29.03,-17.09,4
2949610,0.66,0.02,0.72,1.48,-0.95,0.01,43.43,29.03,-17.09,4
2949623,0.66,0.02,0.72,1.64,-0.93,-0.29,43.43,29.03,-17.09,4
2949635,0.66,0.02,0.72,1.6,-1.01,-0.36,43.44,29.09,-17.33,4
2949646,0.66,0.02,0.72,1.57,-0.99,-0.25,43.44,29.09,-17.33,4
2949658,0.66,0.02,0.72,1.55,-0.85,0.05,43.44,29.09,-17.33,4
2949670,0.66,0.02,0.72,1.49,-0.84,0.12,43.44,29.09,-17.33,4
2949681,0.66,0.02,0.72,1.49,-0.86,0.09,43.42,29.09,-17.55,4
2949693,0.66,0.02,0.72,1.69,-0.81,-0.12,43.42,29.09,-17.55,4
2949704,0.66,0.02,0.72,1.75,-0.67,-0.21,43.42,29.09,-17.55,4
2949716,0.66,0.02,0.72,1.85,-0.54,-0.33,43.42,29.09,-17.55,4
2949729,0.66,0.02,0.72,2.2,-0.51,-0.61,43.38,29.04,-17.44,4
2949740,0.66,0.02,0.72,2.2,-0.54,-0.6,43.38,29.04,-17.44,4
2949751,0.66,0.02,0.72,1.96,-0.63,-0.7,43.38,29.04,-17.44,4
2949762,0.66,0.02,0.72,1.82,-0.72,-0.64,43.38,29.04,-17.44,4
2949774,0.66,0.02,0.72,1.73,-0.7,-0.45,43.38,29.04,-17.44,4
2949786,0.66,0.02,0.72,1.84,-0.64,-0.34,43.3,29.02,-17.41,4
2949797,0.66,0.02,0.72,1.93,-0.66,-0.46,43.3,29.02,-17.41,4
2949808,0.67,0.02,0.72,1.96,-0.7,-0.41,43.3,29.02,-17.41,4
2949822,0.66,0.02,0.72,1.92,-0.66,-0.15,43.3,29.02,-17.41,4
2949833,0.66,0.01,0.72,1.74,-0.64,-0.09,43.32,29.05,-17.35,4
2949844,0.66,0.02,0.72,1.57,-0.61,0.01,43.32,29.05,-17.35,4
2949856,0.66,0.02,0.72,1.59,-0.51,0.12,43.32,29.05,-17.35,4
2949868,0.66,0.02,0.72,1.67,-0.48,0.11,43.32,29.05,-17.35,4
2949879,0.66,0.02,0.72,1.71,-0.49,0.02,43.35,29.04,-17.18,4
2949891,0.67,0.02,0.72,1.87,-0.36,-0.38,43.35,29.04,-17.18,4
2949902,0.66,0.02,0.72,1.83,-0.32,-0.56,43.35,29.04,-17.18,4
2949915,0.66,0.02,0.72,1.5,0.31,-0.38,43.35,29.04,-17.18,4
2949926,0.66,0.02,0.72,1.4,0.38,-0.15,43.35,29.04,-17.18,4
2949937,0.66,0.02,0.72,1.39,0.4,-0.03,43.42,29.07,-17.06,4
2949947,0.66,0.02,0.72,1.36,0.42,-0.11,43.42,29.07,-17.06,4
2949957,0.66,0.02,0.72,1.43,0.29,-0.23,43.42,29.07,-17.06,4
2949968,0.67,0.02,0.72,1.39,0.28,-0.1,43.42,29.07,-17.06,4
2949979,0.67,0.02,0.72,1.31,0.34,0.27,43.42,29.14,-17.03,4
2949992,0.67,0.02,0.72,1.52,0.59,0.72,43.42,29.14,-17.03,4
2950003,0.67,0.02,0.72,1.52,0.61,0.63,43.42,29.14,-17.03,4
2950013,0.67,0.02,0.72,1.58,0.47,0.33,43.42,29.14,-17.03,4
2950023,0.67,0.02,0.72,1.81,0.38,-0.04,43.42,29.14,-17.03,4
2950033,0.67,0.02,0.72,1.91,0.3,-0.3,43.4,29.2,-16.99,4
2950045,0.67,0.01,0.72,1.51,0.25,-0.3,43.4,29.2,-16.99,4
2950057,0.67,0.02,0.71,1.24,0.25,-0.23,43.4,29.2,-16.99,4
2950069,0.67,0.02,0.71,1.0,0.27,0.14,43.4,29.2,-16.99,4
2950081,0.67,0.02,0.71,0.99,0.3,0.17,43.53,29.04,-17.05,4
2950093,0.67,0.02,0.71,1.22,0.35,0.12,43.53,29.04,-17.05,4
2950104,0.67,0.02,0.71,1.63,0.45,-0.11,43.53,29.04,-17.05,4
2950115,0.67,0.02,0.71,1.59,0.44,-0.14,43.53,29.04,-17.05,4
2950125,0.67,0.02,0.71,1.55,0.48,-0.17,43.53,29.04,-17.05,4
2950136,0.67,0.02,0.71,1.43,0.48,-0.1,43.63,29.12,-17.18,4
2950146,0.67,0.02,0.71,1.18,0.67,0.08,43.63,29.12,-17.18,4
2950157,0.67,0.02,0.71,1.3,0.8,0.13,43.63,29.12,-17.18,4
2950169,0.67,0.02,0.71,1.47,0.87,0.01,43.63,29.12,-17.18,4
2950179,0.67,0.02,0.71,1.64,0.88,-0.23,43.53,29.1,-17.03,4
2950191,0.67,0.02,0.71,2.03,1.28,-0.54,43.53,29.1,-17.03,4
2950203,0.67,0.02,0.71,2.18,1.76,-0.54,43.53,29.1,-17.03,4
2950213,0.67,0.02,0.71,2.26,2.21,-0.5,43.53,29.1,-17.03,4
2950224,0.67,0.02,0.71,2.15,3.06,-0.67,43.53,29.1,-17.03,4
2950235,0.67,0.02,0.71,2.05,3.46,-0.85,43.62,29.12,-17.1,4
2950247,0.67,0.02,0.71,1.79,3.87,-1.12,43.62,29.12,-17.1,4
2950260,0.67,0.02,0.71,1.41,4.88,-1.65,43.62,29.12,-17.1,4
2950272,0.67,0.02,0.71,1.41,5.62,-2.02,43.62,29.12,-17.1,4
2950284,0.68,0.02,0.71,1.42,6.9,-2.54,43.52,29.19,-17.05,4
2950295,0.68,0.02,0.7,1.65,7.17,-2.44,43.52,29.19,-17.05,4
2950306,0.68,0.01,0.7,1.72,7.38,-2.24,43.52,29.19,-17.05,4
2950320,0.69,0.01,0.7,1.61,7.66,-1.51,43.52,29.19,-17.05,4
2950331,0.69,0.01,0.7,1.47,7.64,-1.07,43.59,29.25,-16.85,4
2950341,0.69,0.01,0.7,1.28,7.54,-0.62,43.59,29.25,-16.85,4
2950354,0.69,0.02,0.7,1.25,7.57,0.22,43.59,29.25,-16.85,4
2950365,0.69,0.02,0.69,1.53,7.65,0.4,43.59,29.25,-16.85,4
2950378,0.69,0.02,0.69,1.73,7.74,0.32,43.64,29.23,-16.5,4
2950389,0.69,0.02,0.69,1.73,7.66,0.16,43.64,29.23,-16.5,4
2950399,0.69,0.02,0.69,1.61,7.44,0.12,43.64,29.23,-16.5,4
2950410,0.7,0.01,0.69,1.58,7.0,0.07,43.64,29.23,-16.5,4
2950423,0.7,0.01,0.68,1.43,5.96,0.06,43.64,29.23,-16.5,4
2950434,0.7,0.01,0.68,1.48,5.51,0.16,43.67,29.27,-16.69,4
2950445,0.7,0.01,0.68,1.4,5.05,0.27,43.67,29.27,-16.69,4
2950457,0.7,0.01,0.68,1.0,4.1,0.59,43.67,29.27,-16.69,4
2950469,0.7,0.01,0.68,0.89,3.6,0.79,43.67,29.27,-16.69,4
2950479,0.7,0.01,0.68,0.74,3.1,0.97,43.76,29.2,-16.8,4
2950490,0.7,0.02,0.68,0.89,2.27,1.0,43.76,29.2,-16.8,4
2950501,0.7,0.02,0.68,0.96,1.96,0.9,43.76,29.2,-16.8,4
2950511,0.7,0.02,0.68,1.11,1.72,0.83,43.76,29.2,-16.8,4
2950521,0.7,0.02,0.68,1.24,1.65,0.8,43.76,29.2,-16.8,4
2950531,0.7,0.02,0.68,1.41,1.63,0.74,43.92,29.22,-16.61,4
2950543,0.7,0.01,0.68,1.33,1.64,0.83,43.92,29.22,-16.61,4
2950555,0.7,0.01,0.68,1.09,1.65,0.94,43.92,29.22,-16.61,4
2950565,0.71,0.02,0.68,0.86,1.56,1.02,43.92,29.22,-16.61,4
2950579,0.71,0.02,0.68,0.64,1.35,1.08,43.99,29.17,-16.4,4
2950590,0.71,0.02,0.68,0.69,1.34,1.14,43.99,29.17,-16.4,4
2950604,0.71,0.02,0.68,1.1,1.35,0.97,43.99,29.17,-16.4,4
2950615,0.71,0.02,0.68,1.2,1.13,0.77,43.99,29.17,-16.4,4
2950630,0.71,0.02,0.68,1.37,0.8,0.76,44.1,29.15,-16.35,4
2950640,0.71,0.02,0.68,1.42,0.76,0.9,44.1,29.15,-16.35,4
2950651,0.71,0.02,0.68,1.35,0.75,1.07,44.1,29.15,-16.35,4
2950662,0.71,0.02,0.68,1.16,0.65,1.28,44.1,29.15,-16.35,4
2950673,0.71,0.02,0.68,0.97,0.52,1.21,44.1,29.15,-16.35,4
2950683,0.71,0.02,0.68,0.92,0.38,1.07,44.35,29.14,-16.22,4
2950695,0.71,0.03,0.67,1.04,0.33,0.93,44.35,29.14,-16.22,4
2950706,0.71,0.02,0.67,1.55,0.51,0.65,44.35,29.14,-16.22,4
2950718,0.71,0.02,0.67,1.72,0.58,0.47,44.35,29.14,-16.22,4
2950729,0.71,0.02,0.67,1.8,0.57,0.28,44.46,29.21,-16.03,4
2950741,0.71,0.02,0.67,1.71,0.44,0.07,44.46,29.21,-16.03,4
2950752,0.71,0.02,0.67,1.57,0.37,0.15,44.46,29.21,-16.03,4
2950762,0.71,0.02,0.67,1.5,0.33,0.36,44.46,29.21,-16.03,4
2950772,0.71,0.02,0.67,1.45,0.34,0.55,44.46,29.21,-16.03,4
2950784,0.71,0.02,0.67,1.48,0.26,0.6,44.49,29.2,-15.96,4
2950796,0.71,0.02,0.67,1.59,0.22,0.56,44.49,29.2,-15.96,4
2950806,0.71,0.02,0.67,1.63,0.17,0.52,44.49,29.2,-15.96,4
2950817,0.71,0.02,0.67,1.57,0.08,0.59,44.49,29.2,-15.96,4
2950828,0.71,0.02,0.67,1.63,0.12,0.62,44.53,29.04,-15.81,4
2950840,0.71,0.02,0.67,1.72,0.21,0.64,44.53,29.04,-15.81,4
2950853,0.71,0.02,0.67,1.71,0.15,0.33,44.53,29.04,-15.81,4
2950864,0.71,0.02,0.67,1.72,0.07,0.16,44.53,29.04,-15.81,4
2950879,0.71,0.02,0.67,1.6,0.03,0.27,44.63,29.05,-15.82,4
2950889,0.71,0.02,0.67,1.48,0.06,0.46,44.63,29.05,-15.82,4
2950899,0.71,0.02,0.67,1.45,0.13,0.52,44.63,29.05,-15.82,4
2950911,0.71,0.02,0.67,1.52,-0.05,0.33,44.63,29.05,-15.82,4
2950922,0.72,0.02,0.67,1.65,-0.08,0.22,44.63,29.05,-15.82,4
2950933,0.71,0.02,0.67,1.76,-0.1,0.13,44.7,28.99,-15.67,4
2950945,0.71,0.02,0.67,1.54,-0.29,0.19,44.7,28.99,-15.67,4
2950956,0.71,0.02,0.67,1.35,-0.4,0.35,44.7,28.99,-15.67,4
2950968,0.71,0.02,0.67,1.28,-0.45,0.5,44.7,28.99,-15.67,4
2950980,0.71,0.02,0.67,1.35,-0.44,0.61,44.8,28.96,-15.66,4
2950991,0.71,0.02,0.67,1.49,-0.41,0.57,44.8,28.96,-15.66,4
2951001,0.71,0.02,0.67,1.6,-0.36,0.43,44.8,28.96,-15.66,4
2951011,0.71,0.02,0.67,1.6,-0.47,0.24,44.8,28.96,-15.66,4
2951021,0.71,0.02,0.67,1.48,-0.53,0.12,44.8,28.96,-15.66,4
2951033,0.72,0.02,0.67,1.21,-0.58,0.28,44.81,28.98,-15.5,4
2951045,0.72,0.03,0.67,1.24,-0.58,0.38,44.81,28.98,-15.5,4
2951058,0.72,0.03,0.67,1.51,-0.65,0.24,44.81,28.98,-15.5,4
2951070,0.72,0.02,0.67,1.78,-0.72,0.07,44.81,28.98,-15.5,4
2951081,0.71,0.02,0.67,1.95,-0.8,-0.11,44.91,29.03,-15.53,4
2951093,0.71,0.02,0.67,1.74,-0.74,-0.05,44.91,29.03,-15.53,4
2951104,0.71,0.02,0.67,1.56,-0.71,0.07,44.91,29.03,-15.53,4
2951117,0.72,0.02,0.67,1.27,-0.73,0.27,44.91,29.03,-15.53,4
2951129,0.72,0.03,0.67,1.33,-0.71,0.19,44.94,28.95,-15.48,4
2951139,0.72,0.03,0.67,1.49,-0.75,-0.04,44.94,28.95,-15.48,4
2951149,0.72,0.03,0.67,1.65,-0.78,-0.32,44.94,28.95,-15.48,4
2951160,0.72,0.02,0.67,1.78,-0.9,-0.47,44.94,28.95,-15.48,4
2951171,0.72,0.02,0.67,1.73,-0.89,-0.38,44.94,28.95,-15.48,4
2951182,0.72,0.02,0.67,1.55,-0.85,-0.14,45.17,28.98,-15.56,4
2951194,0.72,0.02,0.67,1.39,-0.74,0.25,45.17,28.98,-15.56,4
2951205,0.72,0.02,0.67,1.43,-0.77,0.13,45.17,28.98,-15.56,4
2951217,0.72,0.02,0.67,1.39,-0.92,-0.12,45.17,28.98,-15.56,4
2951229,0.72,0.02,0.67,1.38,-1.1,-0.41,45.25,28.91,-15.64,4
2951240,0.72,0.02,0.67,1.37,-1.05,-0.42,45.25,28.91,-15.64,4
2951251,0.72,0.02,0.67,1.3,-0.97,-0.36,45.25,28.91,-15.64,4
2951262,0.72,0.02,0.67,1.32,-0.97,-0.26,45.25,28.91,-15.64,4
2951274,0.72,0.02,0.67,1.5,-1.0,-0.1,45.25,28.91,-15.64,4
2951285,0.72,0.02,0.67,1.49,-1.0,0.03,45.24,28.89,-15.61,4
2951295,0.72,0.03,0.67,1.51,-0.99,0.11,45.24,28.89,-15.61,4
2951305,0.72,0.03,0.67,1.62,-0.98,0.12,45.24,28.89,-15.61,4
2951317,0.72,0.02,0.67,1.66,-1.07,0.06,45.24,28.89,-15.61,4
2951328,0.72,0.02,0.67,1.58,-1.12,0.04,45.06,28.84,-15.72,4
2951338,0.72,0.02,0.67,1.49,-1.13,0.1,45.06,28.84,-15.72,4
2951351,0.72,0.02,0.67,1.33,-1.09,0.25,45.06,28.84,-15.72,4
2951363,0.72,0.03,0.67,1.44,-1.04,0.21,45.06,28.84,-15.72,4
2951373,0.72,0.03,0.67,1.63,-1.0,0.1,45.06,28.84,-15.72,4
2951385,0.72,0.03,0.67,1.84,-1.01,-0.18,44.99,28.8,-15.75,4
2951397,0.72,0.02,0.67,1.92,-0.99,-0.19,44.99,28.8,-15.75,4
2951411,0.72,0.02,0.67,1.86,-1.07,-0.22,44.99,28.8,-15.75,4
2951422,0.72,0.02,0.67,1.75,-1.15,-0.15,44.99,28.8,-15.75,4
2951433,0.72,0.02,0.67,1.67,-1.13,0.03,44.93,28.9,-15.63,4
2951445,0.72,0.02,0.67,1.73,-0.9,0.29,44.93,28.9,-15.63,4
2951456,0.72,0.02,0.67,1.7,-0.87,0.29,44.93,28.9,-15.63,4
2951469,0.72,0.02,0.67,1.8,-0.9,0.16,44.93,28.9,-15.63,4
2951481,0.72,0.02,0.67,1.81,-0.97,0.07,44.87,28.91,-15.7,4
2951492,0.72,0.02,0.67,1.76,-1.02,0.04,44.87,28.91,-15.7,4
2951503,0.72,0.02,0.67,1.63,-1.01,-0.01,44.87,28.91,-15.7,4
2951514,0.72,0.02,0.67,1.62,-1.04,-0.06,44.87,28.91,-15.7,4
2951525,0.72,0.02,0.67,1.6,-1.09,-0.1,44.85,28.98,-15.68,4
2951538,0.72,0.02,0.67,1.87,-0.99,-0.17,44.85,28.98,-15.68,4
2951549,0.72,0.02,0.67,1.96,-0.88,-0.25,44.85,28.98,-15.68,4
2951560,0.72,0.02,0.67,1.98,-0.85,-0.31,44.85,28.98,-15.68,4
2951575,0.72,0.02,0.67,1.81,-0.89,-0.22,44.89,28.99,-15.33,4
2951587,0.72,0.02,0.67,1.68,-0.96,-0.09,44.89,28.99,-15.33,4
2951598,0.72,0.02,0.67,1.61,-0.92,0.13,44.89,28.99,-15.33,4
2951609,0.72,0.03,0.66,1.68,-0.96,0.06,44.89,28.99,-15.33,4
2951619,0.72,0.03,0.66,1.69,-0.99,-0.12,44.89,28.99,-15.33,4
2951630,0.72,0.03,0.66,1.79,-0.99,-0.24,45.06,28.97,-15.35,4
2951641,0.72,0.02,0.66,2.09,-0.9,-0.43,45.06,28.97,-15.35,4
2951652,0.72,0.02,0.67,2.02,-0.89,-0.42,45.06,28.97,-15.35,4
2951662,0.72,0.02,0.67,1.79,-0.93,-0.27,45.06,28.97,-15.35,4
2951672,0.72,0.02,0.67,1.6,-0.97,-0.09,45.06,28.97,-15.35,4
2951684,0.72,0.02,0.67,1.33,-1.03,0.07,45.01,28.85,-15.29,4
2951695,0.72,0.03,0.67,1.29,-1.12,0.03,45.01,28.85,-15.29,4
2951705,0.72,0.03,0.67,1.42,-1.21,-0.05,45.01,28.85,-15.29,4
2951715,0.72,0.03,0.67,1.66,-1.25,-0.14,45.01,28.85,-15.29,4
2951726,0.72,0.02,0.67,1.79,-1.27,-0.26,45.04,28.91,-15.26,4
2951737,0.72,0.02,0.67,1.86,-1.25,-0.36,45.04,28.91,-15.26,4
2951749,0.72,0.02,0.67,1.93,-1.25,-0.46,45.04,28.91,-15.26,4
2951759,0.72,0.02,0.67,1.68,-1.27,-0.41,45.04,28.91,-15.26,4
2951770,0.72,0.02,0.67,1.34,-1.24,-0.26,45.04,28.91,-15.26,4
2951782,0.72,0.02,0.67,1.18,-1.25,-0.3,45.11,28.85,-15.16,4
2951793,0.72,0.03,0.67,1.14,-1.29,-0.37,45.11,28.85,-15.16,4
2951805,0.72,0.03,0.67,1.41,-1.3,-0.64,45.11,28.85,-15.16,4
2951817,0.72,0.03,0.67,1.69,-1.28,-0.79,45.11,28.85,-15.16,4
2951828,0.72,0.03,0.67,1.9,-1.28,-0.91,45.24,28.79,-15.27,4
2951840,0.72,0.02,0.67,2.13,-1.24,-1.06,45.24,28.79,-15.27,4
2951851,0.72,0.02,0.67,2.05,-1.27,-1.04,45.24,28.79,-15.27,4
2951864,0.72,0.02,0.67,1.72,-1.41,-0.71,45.24,28.79,-15.27,4
2951876,0.72,0.02,0.66,1.63,-1.39,-0.56,45.28,28.83,-15.13,4
2951887,0.72,0.02,0.66,1.55,-1.39,-0.51,45.28,28.83,-15.13,4
2951898,0.72,0.02,0.67,1.32,-1.41,-0.57,45.28,28.83,-15.13,4
2951909,0.72,0.02,0.67,1.37,-1.35,-0.66,45.28,28.83,-15.13,4
2951921,0.72,0.02,0.67,1.46,-1.31,-0.72,45.28,28.83,-15.13,4
2951933,0.72,0.02,0.67,1.7,-1.12,-0.91,45.22,28.87,-15.23,4
2951944,0.72,0.02,0.67,1.82,-1.08,-1.08,45.22,28.87,-15.23,4
2951955,0.72,0.02,0.67,1.84,-1.2,-1.08,45.22,28.87,-15.23,4
2951969,0.72,0.02,0.67,1.92,-1.2,-0.63,45.22,28.87,-15.23,4
2951980,0.72,0.02,0.67,1.99,-1.12,-0.24,45.15,28.88,-15.29,4
2951991,0.72,0.02,0.67,2.07,-1.08,0.1,45.15,28.88,-15.29,4
2952003,0.72,0.02,0.67,2.03,-1.17,0.22,45.15,28.88,-15.29,4
2952015,0.71,0.02,0.67,1.96,-1.25,0.18,45.15,28.88,-15.29,4
2952026,0.71,0.02,0.67,1.81,-1.22,0.22,45.07,29.0,-15.32,4
2952038,0.72,0.02,0.67,1.61,-1.12,0.32,45.07,29.0,-15.32,4
2952048,0.72,0.02,0.67,1.62,-1.11,0.13,45.07,29.0,-15.32,4
2952059,0.72,0.02,0.67,1.64,-1.16,-0.13,45.07,29.0,-15.32,4
2952070,0.72,0.02,0.67,1.95,-1.25,-0.46,45.07,29.0,-15.32,4
2952082,0.72,0.02,0.67,2.03,-1.25,-0.52,45.03,29.05,-15.43,4
2952094,0.72,0.01,0.67,1.93,-1.21,-0.47,45.03,29.05,-15.43,4
2952106,0.72,0.02,0.67,1.46,-1.16,-0.17,45.03,29.05,-15.43,4
2952117,0.72,0.02,0.67,1.29,-1.15,0.0,45.03,29.05,-15.43,4
2952128,0.72,0.02,0.67,1.25,-1.12,0.22,44.91,29.15,-15.3,4
2952140,0.72,0.02,0.66,1.4,-1.02,0.28,44.91,29.15,-15.3,4
2952152,0.72,0.02,0.66,1.49,-1.05,0.03,44.91,29.15,-15.3,4
2952162,0.72,0.02,0.67,1.61,-1.12,-0.21,44.91,29.15,-15.3,4
2952172,0.72,0.02,0.67,1.67,-1.13,-0.31,44.91,29.15,-15.3,4
2952184,0.72,0.02,0.67,1.69,-1.2,-0.31,44.93,29.12,-15.33,4
2952195,0.72,0.02,0.67,1.58,-1.14,-0.19,44.93,29.12,-15.33,4
2952205,0.72,0.02,0.67,1.47,-1.13,-0.05,44.93,29.12,-15.33,4
2952215,0.72,0.02,0.67,1.44,-1.15,0.0,44.93,29.12,-15.33,4
2952228,0.72,0.02,0.67,1.33,-1.14,0.1,44.88,29.13,-15.32,4
2952239,0.72,0.02,0.67,1.39,-1.13,0.11,44.88,29.13,-15.32,4
2952253,0.72,0.02,0.67,1.58,-1.24,-0.13,44.88,29.13,-15.32,4
2952264,0.72,0.02,0.67,1.57,-1.29,-0.18,44.88,29.13,-15.32,4
2952276,0.72,0.02,0.67,1.45,-1.32,-0.1,44.98,29.06,-15.24,4
2952287,0.72,0.02,0.67,1.49,-1.24,-0.04,44.98,29.06,-15.24,4
2952299,0.72,0.02,0.67,1.53,-1.14,-0.04,44.98,29.06,-15.24,4
2952313,0.72,0.02,0.67,1.67,-1.14,-0.03,44.98,29.06,-15.24,4
2952324,0.72,0.02,0.67,1.68,-1.17,0.04,45.0,29.09,-15.35,4
2952334,0.72,0.02,0.67,1.69,-1.17,0.18,45.0,29.09,-15.35,4
2952344,0.72,0.02,0.67,1.68,-1.11,0.34,45.0,29.09,-15.35,4
2952356,0.72,0.02,0.67,1.56,-1.1,0.41,45.0,29.09,-15.35,4
2952366,0.72,0.02,0.67,1.46,-1.14,0.4,45.0,29.09,-15.35,4
2952377,0.72,0.02,0.67,1.48,-1.13,0.35,44.94,29.18,-15.48,4
2952387,0.71,0.02,0.67,1.58,-1.12,0.27,44.94,29.18,-15.48,4
2952398,0.72,0.02,0.67,1.58,-1.09,0.02,44.94,29.18,-15.48,4
2952410,0.72,0.02,0.67,1.62,-1.11,-0.05,44.94,29.18,-15.48,4
2952423,0.72,0.02,0.67,1.78,-1.21,-0.01,44.91,29.1,-15.51,4
2952435,0.72,0.02,0.67,1.83,-1.16,0.09,44.91,29.1,-15.51,4
2952446,0.72,0.02,0.67,1.91,-1.1,0.06,44.91,29.1,-15.51,4
2952458,0.72,0.02,0.67,1.8,-1.16,0.05,44.91,29.1,-15.51,4
2952470,0.72,0.02,0.67,1.64,-1.15,0.24,44.91,29.1,-15.51,4
2952481,0.72,0.02,0.67,1.55,-1.1,0.47,44.97,29.07,-15.42,4
2952493,0.72,0.02,0.67,1.51,-0.98,0.5,44.97,29.07,-15.42,4
2952504,0.72,0.02,0.67,1.5,-1.0,0.24,44.97,29.07,-15.42,4
2952517,0.72,0.02,0.67,1.62,-1.13,-0.34,44.97,29.07,-15.42,4
2952529,0.72,0.02,0.67,1.6,-1.13,-0.36,45.05,29.07,-15.39,4
2952540,0.72,0.02,0.67,1.54,-1.13,-0.2,45.05,29.07,-15.39,4
2952552,0.72,0.02,0.67,1.53,-1.12,0.04,45.05,29.07,-15.39,4
2952564,0.72,0.02,0.67,1.59,-1.16,0.06,45.05,29.07,-15.39,4
2952575,0.72,0.02,0.67,1.75,-1.17,0.01,45.02,29.09,-15.24,4
2952587,0.72,0.02,0.67,1.89,-1.17,-0.15,45.02,29.09,-15.24,4
2952598,0.72,0.02,0.67,1.78,-1.17,-0.16,45.02,29.09,-15.24,4
2952611,0.72,0.02,0.67,1.76,-1.09,0.05,45.02,29.09,-15.24,4
2952622,0.72,0.02,0.67,1.8,-1.02,0.04,45.02,29.09,-15.24,4
2952633,0.72,0.02,0.67,1.77,-1.09,-0.17,44.99,29.03,-15.27,4
2952645,0.72,0.02,0.67,1.68,-1.15,-0.43,44.99,29.03,-15.27,4
2952656,0.72,0.02,0.67,1.73,-1.1,-0.3,44.99,29.03,-15.27,4
2952668,0.72,0.02,0.67,1.68,-1.0,-0.04,44.99,29.03,-15.27,4
2952680,0.72,0.02,0.67,1.62,-0.95,0.19,45.02,29.09,-15.12,4
2952691,0.72,0.02,0.67,1.63,-1.06,0.15,45.02,29.09,-15.12,4
2952701,0.72,0.02,0.67,1.7,-1.12,0.08,45.02,29.09,-15.12,4
2952712,0.72,0.02,0.67,1.77,-1.15,-0.01,45.02,29.09,-15.12,4
2952725,0.72,0.02,0.67,1.81,-1.12,-0.05,44.99,29.13,-15.08,4
2952737,0.72,0.02,0.67,1.76,-1.17,-0.02,44.99,29.13,-15.08,4
2952750,0.72,0.02,0.67,1.68,-1.18,-0.09,44.99,29.13,-15.08,4
2952762,0.72,0.02,0.67,1.82,-1.15,-0.16,44.99,29.13,-15.08,4
2952773,0.72,0.02,0.67,1.89,-1.13,-0.21,45.1,29.03,-15.01,4
2952785,0.72,0.02,0.67,1.91,-0.91,0.04,45.1,29.03,-15.01,4
2952796,0.72,0.02,0.67,1.76,-0.81,0.12,45.1,29.03,-15.01,4
2952809,0.72,0.02,0.67,1.55,-0.82,0.3,45.1,29.03,-15.01,4
2952820,0.72,0.02,0.67,1.58,-0.83,0.3,45.1,29.03,-15.01,4
2952831,0.72,0.02,0.67,1.64,-0.89,0.18,45.06,29.01,-14.99,4
2952844,0.72,0.02,0.67,1.82,-0.9,-0.04,45.06,29.01,-14.99,4
2952856,0.72,0.02,0.67,1.86,-0.92,-0.14,45.06,29.01,-14.99,4
2952867,0.72,0.02,0.67,1.75,-1.0,-0.23,45.06,29.01,-14.99,4
2952880,0.72,0.02,0.67,1.59,-1.13,-0.14,45.07,29.02,-14.84,4
2952892,0.72,0.02,0.67,1.72,-1.11,-0.03,45.07,29.02,-14.84,4
2952905,0.72,0.02,0.67,1.86,-0.96,0.18,45.07,29.02,-14.84,4
2952917,0.72,0.02,0.67,1.8,-0.98,0.29,45.07,29.02,-14.84,4
2952929,0.72,0.02,0.67,1.48,-1.0,0.58,45.11,29.08,-14.83,4
2952940,0.72,0.02,0.67,1.32,-1.0,0.66,45.11,29.08,-14.83,4
2952951,0.72,0.02,0.67,1.23,-0.98,0.67,45.11,29.08,-14.83,4
2952965,0.72,0.03,0.66,1.58,-1.03,0.27,45.11,29.08,-14.83,4
2952976,0.72,0.02,0.67,1.8,-1.1,-0.08,45.07,29.1,-14.96,4
2952987,0.72,0.02,0.67,1.91,-1.19,-0.39,45.07,29.1,-14.96,4
2953000,0.72,0.02,0.67,1.86,-1.19,-0.48,45.07,29.1,-14.96,4
2953011,0.72,0.02,0.67,1.76,-1.2,-0.31,45.07,29.1,-14.96,4
2953024,0.72,0.02,0.66,1.74,-1.13,-0.06,45.1,29.1,-14.98,4
2953036,0.72,0.02,0.66,1.76,-1.15,-0.13,45.1,29.1,-14.98,4
2953048,0.72,0.02,0.67,1.78,-1.11,-0.24,45.1,29.1,-14.98,4
2953060,0.72,0.02,0.67,1.87,-1.03,-0.2,45.1,29.1,-14.98,4
2953070,0.72,0.02,0.67,1.87,-0.99,-0.1,45.1,29.1,-14.98,4
2953081,0.72,0.02,0.67,1.78,-1.04,-0.04,45.05,29.11,-14.94,4
2953091,0.72,0.02,0.67,1.7,-1.11,-0.02,45.05,29.11,-14.94,4
2953102,0.72,0.02,0.67,1.67,-1.16,-0.0,45.05,29.11,-14.94,4
2953114,0.72,0.02,0.67,1.58,-1.23,0.13,45.05,29.11,-14.94,4
2953125,0.72,0.02,0.67,1.52,-1.25,0.24,45.07,29.22,-14.84,4
2953137,0.72,0.02,0.67,1.65,-1.23,0.33,45.07,29.22,-14.84,4
2953148,0.72,0.02,0.67,1.78,-1.14,0.22,45.07,29.22,-14.84,4
2953161,0.72,0.02,0.67,1.87,-1.18,-0.09,45.07,29.22,-14.84,4
2953173,0.72,0.02,0.67,1.87,-1.16,-0.05,45.05,29.13,-14.88,4
2953184,0.72,0.02,0.67,1.9,-1.09,0.14,45.05,29.13,-14.88,4
2953195,0.72,0.02,0.67,1.66,-0.93,0.43,45.05,29.13,-14.88,4
2953206,0.72,0.02,0.67,1.56,-0.95,0.43,45.05,29.13,-14.88,4
2953218,0.72,0.02,0.67,1.52,-1.01,0.39,45.05,29.13,-14.88,4
2953230,0.72,0.02,0.67,1.58,-1.08,0.09,45.0,29.11,-14.89,4
2953241,0.72,0.02,0.67,1.65,-1.11,-0.23,45.0,29.11,-14.89,4
2953252,0.72,0.02,0.67,1.73,-1.14,-0.5,45.0,29.11,-14.89,4
2953266,0.72,0.02,0.67,1.96,-1.18,-0.6,45.0,29.11,-14.89,4
2953277,0.72,0.02,0.67,1.88,-1.19,-0.43,45.15,29.18,-14.76,4
2953289,0.72,0.02,0.67,1.69,-1.02,-0.01,45.15,29.18,-14.76,4
2953300,0.72,0.02,0.66,1.72,-1.04,0.07,45.15,29.18,-14.76,4
2953312,0.72,0.02,0.66,1.78,-1.09,-0.04,45.15,29.18,-14.76,4
2953323,0.72,0.02,0.66,1.85,-1.16,-0.27,45.13,29.27,-14.85,4
2953335,0.72,0.02,0.67,1.94,-1.22,-0.51,45.13,29.27,-14.85,4
2953346,0.72,0.02,0.67,1.86,-1.18,-0.41,45.13,29.27,-14.85,4
2953360,0.72,0.02,0.67,1.6,-1.2,0.04,45.13,29.27,-14.85,4
2953372,0.72,0.02,0.67,1.6,-1.15,0.16,45.25,29.22,-14.97,4
2953386,0.72,0.02,0.67,1.63,-1.16,0.06,45.25,29.22,-14.97,4
2953397,0.72,0.02,0.67,1.58,-1.13,-0.03,45.25,29.22,-14.97,4
2953410,0.72,0.02,0.67,1.54,-1.2,-0.09,45.25,29.22,-14.97,4
2953421,0.72,0.02,0.67,1.6,-1.18,-0.1,45.25,29.22,-14.97,4
2953432,0.72,0.02,0.66,1.69,-1.18,-0.19,45.22,29.28,-14.98,4
2953445,0.72,0.02,0.67,1.78,-1.23,-0.41,45.22,29.28,-14.98,4
2953457,0.72,0.02,0.67,1.8,-1.24,-0.36,45.22,29.28,-14.98,4
2953468,0.72,0.02,0.67,1.86,-1.2,-0.26,45.22,29.28,-14.98,4
2953482,0.72,0.02,0.67,1.54,-1.18,0.04,45.29,29.32,-15.18,4
2953493,0.72,0.02,0.67,1.4,-1.12,0.15,45.29,29.32,-15.18,4
2953506,0.72,0.02,0.66,1.59,-1.11,-0.07,45.29,29.32,-15.18,4
2953518,0.72,0.02,0.67,1.76,-1.08,-0.24,45.29,29.32,-15.18,4
2953530,0.72,0.02,0.67,2.09,-1.1,-0.29,45.35,29.44,-15.25,4
2953541,0.72,0.01,0.67,2.09,-1.07,-0.18,45.35,29.44,-15.25,4
2953552,0.72,0.01,0.67,1.88,-1.06,-0.06,45.35,29.44,-15.25,4
2953566,0.72,0.02,0.67,1.49,-1.09,0.21,45.35,29.44,-15.25,4
2953577,0.72,0.02,0.67,1.49,-1.11,0.34,45.34,29.37,-15.12,4
2953587,0.72,0.02,0.66,1.52,-1.09,0.37,45.34,29.37,-15.12,4
2953600,0.72,0.02,0.67,1.69,-1.1,0.06,45.34,29.37,-15.12,4
2953611,0.72,0.02,0.67,1.8,-1.18,-0.08,45.34,29.37,-15.12,4
2953623,0.72,0.02,0.67,1.85,-1.23,-0.19,45.31,29.36,-14.94,4
2953635,0.72,0.02,0.67,1.97,-1.17,-0.22,45.31,29.36,-14.94,4
2953646,0.72,0.02,0.67,1.86,-1.11,-0.16,45.31,29.36,-14.94,4
2953659,0.72,0.02,0.67,1.61,-1.09,0.14,45.31,29.36,-14.94,4
2953670,0.72,0.02,0.67,1.53,-1.06,0.24,45.31,29.36,-14.94,4
2953681,0.72,0.02,0.67,1.48,-1.07,0.26,45.22,29.37,-15.03,4
2953691,0.72,0.02,0.66,1.5,-1.06,0.2,45.22,29.37,-15.03,4
2953701,0.72,0.02,0.66,1.75,-1.09,-0.02,45.22,29.37,-15.03,4
2953712,0.72,0.02,0.67,1.86,-1.15,-0.16,45.22,29.37,-15.03,4
2953723,0.72,0.02,0.67,1.95,-1.18,-0.25,45.25,29.51,-15.07,4
2953736,0.72,0.02,0.67,1.98,-1.18,-0.32,45.25,29.51,-15.07,4
2953747,0.72,0.02,0.67,1.95,-1.21,-0.31,45.25,29.51,-15.07,4
2953758,0.72,0.02,0.67,1.93,-1.26,-0.25,45.25,29.51,-15.07,4
2953773,0.72,0.02,0.66,1.98,-1.31,-0.24,45.27,29.58,-15.07,4
2953784,0.72,0.02,0.67,2.0,-1.32,-0.23,45.27,29.58,-15.07,4
2953795,0.72,0.02,0.67,2.04,-1.3,-0.18,45.27,29.58,-15.07,4
2953807,0.72,0.02,0.67,2.09,-1.09,-0.06,45.27,29.58,-15.07,4
2953818,0.72,0.02,0.67,1.97,-1.06,-0.13,45.27,29.58,-15.07,4
2953829,0.72,0.02,0.67,1.81,-1.11,-0.19,45.27,29.63,-15.27,4
2953841,0.72,0.02,0.67,1.68,-1.04,-0.15,45.27,29.63,-15.27,4
2953853,0.72,0.02,0.67,1.59,-0.98,-0.07,45.27,29.63,-15.27,4
2953866,0.72,0.02,0.67,1.58,-1.11,-0.17,45.27,29.63,-15.27,4
2953877,0.72,0.02,0.67,1.66,-1.13,-0.2,45.21,29.69,-15.26,4
2953889,0.72,0.02,0.67,1.71,-1.15,-0.22,45.21,29.69,-15.26,4
2953901,0.72,0.02,0.67,1.75,-1.22,-0.22,45.21,29.69,-15.26,4
2953912,0.72,0.02,0.67,1.82,-1.23,-0.12,45.21,29.69,-15.26,4
2953924,0.72,0.02,0.67,1.9,-1.26,-0.04,45.09,29.62,-15.22,4
2953936,0.72,0.02,0.67,1.82,-1.21,0.17,45.09,29.62,-15.22,4
2953947,0.72,0.02,0.67,1.77,-1.16,0.24,45.09,29.62,-15.22,4
2953960,0.72,0.02,0.67,1.68,-1.18,0.36,45.09,29.62,-15.22,4
2953971,0.72,0.02,0.67,1.68,-1.18,0.32,44.97,29.51,-15.36,4
2953983,0.72,0.02,0.67,1.59,-1.17,0.25,44.97,29.51,-15.36,4
2953994,0.72,0.02,0.66,1.52,-1.12,0.2,44.97,29.51,-15.36,4
2954005,0.72,0.02,0.67,1.56,-1.09,0.21,44.97,29.51,-15.36,4
2954016,0.72,0.02,0.67,1.62,-1.13,0.15,44.97,29.51,-15.36,4
2954028,0.72,0.02,0.67,1.7,-1.23,0.02,44.93,29.43,-15.58,4
2954039,0.72,0.02,0.67,1.67,-1.2,0.01,44.93,29.43,-15.58,4
2954051,0.72,0.02,0.67,1.63,-1.17,0.07,44.93,29.43,-15.58,4
2954061,0.72,0.02,0.67,1.63,-1.16,0.17,44.93,29.43,-15.58,4
2954073,0.72,0.02,0.67,1.64,-1.11,0.25,44.88,29.47,-15.69,4
2954085,0.72,0.02,0.67,1.64,-1.07,0.19,44.88,29.47,-15.69,4
2954098,0.72,0.02,0.67,1.78,-1.01,-0.17,44.88,29.47,-15.69,4
2954110,0.72,0.02,0.67,1.86,-1.05,-0.36,44.88,29.47,-15.69,4
2954121,0.72,0.02,0.67,1.86,-1.06,-0.44,44.75,29.44,-15.32,4
2954133,0.72,0.02,0.67,1.77,-1.03,-0.24,44.75,29.44,-15.32,4
2954144,0.72,0.02,0.67,1.67,-0.98,-0.18,44.75,29.44,-15.32,4
2954157,0.72,0.02,0.66,1.54,-1.08,-0.23,44.75,29.44,-15.32,4
2954168,0.72,0.02,0.67,1.55,-1.15,-0.35,44.75,29.44,-15.32,4
2954179,0.72,0.02,0.67,1.6,-1.18,-0.35,44.71,29.38,-15.32,4
2954191,0.72,0.02,0.67,1.78,-1.03,-0.16,44.71,29.38,-15.32,4
2954203,0.72,0.02,0.67,1.82,-1.01,-0.04,44.71,29.38,-15.32,4
2954213,0.72,0.02,0.67,1.89,-1.03,0.02,44.71,29.38,-15.32,4
2954224,0.72,0.02,0.67,1.89,-1.04,0.06,44.76,29.36,-15.28,4
2954234,0.72,0.02,0.66,1.84,-1.12,0.04,44.76,29.36,-15.28,4
2954245,0.72,0.02,0.67,1.76,-1.11,0.03,44.76,29.36,-15.28,4
2954257,0.72,0.01,0.67,1.66,-1.12,0.15,44.76,29.36,-15.28,4
2954271,0.72,0.02,0.67,1.5,-1.01,0.42,44.84,29.41,-15.28,4
2954283,0.72,0.02,0.67,1.49,-1.01,0.38,44.84,29.41,-15.28,4
2954296,0.72,0.02,0.66,1.62,-1.05,-0.12,44.84,29.41,-15.28,4
2954308,0.72,0.02,0.67,1.72,-1.08,-0.31,44.84,29.41,-15.28,4
2954323,0.72,0.02,0.67,1.65,-1.1,-0.26,44.88,29.48,-15.31,4
2954334,0.72,0.02,0.67,1.61,-1.06,-0.23,44.88,29.48,-15.31,4
2954348,0.72,0.02,0.66,1.78,-1.07,-0.45,44.88,29.48,-15.31,4
2954360,0.72,0.02,0.66,1.88,-1.13,-0.63,44.88,29.48,-15.31,4
2954370,0.72,0.02,0.66,1.95,-1.18,-0.67,44.75,29.44,-15.04,4
2954382,0.72,0.01,0.67,1.86,-1.06,-0.31,44.75,29.44,-15.04,4
2954394,0.72,0.01,0.67,1.69,-1.0,-0.07,44.75,29.44,-15.04,4
2954408,0.72,0.02,0.67,1.59,-1.01,0.12,44.75,29.44,-15.04,4
2954419,0.72,0.02,0.67,1.63,-1.06,-0.03,44.75,29.44,-15.04,4
2954430,0.72,0.02,0.67,1.7,-1.12,-0.2,44.72,29.43,-15.14,4
2954442,0.72,0.02,0.67,1.76,-1.22,-0.31,44.72,29.43,-15.14,4
2954453,0.72,0.02,0.67,1.73,-1.24,-0.25,44.72,29.43,-15.14,4
2954466,0.72,0.02,0.67,1.74,-1.22,-0.0,44.72,29.43,-15.14,4
2954478,0.72,0.02,0.66,1.71,-1.22,0.17,44.72,29.44,-15.39,4
2954489,0.72,0.02,0.67,1.67,-1.17,0.26,44.72,29.44,-15.39,4
2954500,0.72,0.02,0.67,1.64,-1.22,0.24,44.72,29.44,-15.39,4
2954511,0.72,0.02,0.66,1.67,-1.24,0.23,44.72,29.44,-15.39,4
2954522,0.72,0.02,0.66,1.7,-1.27,0.15,44.66,29.46,-15.16,4
2954535,0.72,0.02,0.66,1.85,-1.18,0.06,44.66,29.46,-15.16,4
2954545,0.72,0.02,0.67,1.88,-1.13,0.02,44.66,29.46,-15.16,4
2954557,0.72,0.02,0.67,1.88,-1.09,0.0,44.66,29.46,-15.16,4
2954570,0.72,0.02,0.67,2.06,-1.03,-0.17,44.59,29.39,-15.11,4
2954582,0.72,0.02,0.66,2.13,-0.95,-0.28,44.59,29.39,-15.11,4
2954593,0.72,0.02,0.66,2.11,-1.04,-0.44,44.59,29.39,-15.11,4
2954606,0.72,0.01,0.67,1.94,-1.12,-0.28,44.59,29.39,-15.11,4
2954617,0.72,0.01,0.66,1.84,-1.07,-0.11,44.59,29.39,-15.11,4
2954629,0.72,0.02,0.66,1.73,-1.11,-0.07,44.63,29.38,-15.15,4
2954640,0.72,0.02,0.66,1.78,-1.13,-0.19,44.63,29.38,-15.15,4
2954652,0.72,0.02,0.67,1.89,-1.11,-0.3,44.63,29.38,-15.15,4
2954662,0.72,0.02,0.67,1.92,-1.13,-0.35,44.63,29.38,-15.15,4
2954675,0.72,0.02,0.67,1.88,-1.1,-0.37,44.68,29.32,-15.31,4
2954686,0.72,0.02,0.67,1.86,-1.11,-0.46,44.68,29.32,-15.31,4
2954700,0.72,0.02,0.66,1.81,-1.1,-0.72,44.68,29.32,-15.31,4
2954712,0.72,0.02,0.67,1.67,-1.05,-0.97,44.68,29.32,-15.31,4
2954722,0.72,0.01,0.67,1.85,-1.17,-0.96,44.78,29.31,-15.17,4
2954734,0.72,0.01,0.67,1.64,-1.16,-0.34,44.78,29.31,-15.17,4
2954746,0.72,0.01,0.67,1.59,-1.13,-0.15,44.78,29.31,-15.17,4
2954760,0.72,0.01,0.67,1.5,-1.09,0.15,44.78,29.31,-15.17,4
2954770,0.72,0.01,0.67,1.45,-1.01,0.22,44.75,29.37,-15.14,4
2954782,0.72,0.02,0.67,1.36,-0.94,0.31,44.75,29.37,-15.14,4
2954794,0.72,0.02,0.66,1.4,-0.74,0.51,44.75,29.37,-15.14,4
2954806,0.72,0.02,0.67,1.46,-0.75,0.45,44.75,29.37,-15.14,4
2954818,0.72,0.02,0.67,1.55,-0.9,0.15,44.75,29.37,-15.14,4
2954830,0.72,0.02,0.67,1.6,-0.92,0.07,44.87,29.38,-14.97,4
2954841,0.72,0.02,0.67,1.71,-0.88,-0.02,44.87,29.38,-14.97,4
2954852,0.72,0.02,0.67,1.91,-0.93,-0.11,44.87,29.38,-14.97,4
2954863,0.72,0.02,0.66,1.97,-1.01,-0.16,44.87,29.38,-14.97,4
2954874,0.72,0.02,0.66,1.97,-1.08,-0.22,44.82,29.37,-14.87,4
2954887,0.72,0.01,0.66,1.85,-1.09,-0.14,44.82,29.37,-14.87,4
2954898,0.72,0.01,0.66,1.74,-1.09,-0.15,44.82,29.37,-14.87,4
2954909,0.72,0.01,0.66,1.64,-1.14,-0.2,44.82,29.37,-14.87,4
2954920,0.72,0.02,0.66,1.49,-1.14,-0.17,44.83,29.38,-14.92,4
2954931,0.72,0.02,0.66,1.4,-1.09,-0.09,44.83,29.38,-14.92,4
2954943,0.72,0.02,0.66,1.5,-0.97,-0.18,44.83,29.38,-14.92,4
2954956,0.72,0.02,0.66,1.68,-0.98,-0.42,44.83,29.38,-14.92,4
2954966,0.72,0.01,0.67,1.72,-0.99,-0.37,44.83,29.38,-14.92,4
2954977,0.72,0.01,0.67,1.63,-1.04,-0.27,44.79,29.37,-14.97,4
2954990,0.72,0.01,0.67,1.46,-1.15,-0.18,44.79,29.37,-14.97,4
2955001,0.72,0.02,0.66,1.52,-1.18,-0.06,44.79,29.37,-14.97,4
2955013,0.72,0.02,0.66,1.61,-1.15,-0.02,44.79,29.37,-14.97,4
2955026,0.72,0.02,0.66,1.65,-1.15,-0.08,44.78,29.36,-14.97,4
2955037,0.72,0.02,0.66,1.69,-1.12,-0.14,44.78,29.36,-14.97,4
2955049,0.72,0.02,0.66,1.77,-1.1,-0.22,44.78,29.36,-14.97,4
2955060,0.72,0.01,0.67,1.77,-1.18,-0.3,44.78,29.36,-14.97,4
2955071,0.72,0.01,0.67,1.73,-1.19,-0.27,44.99,29.3,-15.07,4
2955083,0.72,0.01,0.67,1.7,-1.2,-0.24,44.99,29.3,-15.07,4
2955095,0.72,0.01,0.67,1.6,-1.23,-0.02,44.99,29.3,-15.07,4
2955106,0.72,0.01,0.67,1.57,-1.23,0.18,44.99,29.3,-15.07,4
2955121,0.72,0.01,0.67,1.33,-1.17,0.71,45.04,29.27,-15.04,4
2955132,0.72,0.02,0.66,1.24,-1.19,0.82,45.04,29.27,-15.04,4
2955146,0.72,0.02,0.66,1.45,-1.27,0.56,45.04,29.27,-15.04,4
2955157,0.72,0.02,0.66,1.71,-1.3,0.27,45.04,29.27,-15.04,4
2955171,0.72,0.02,0.66,2.01,-1.32,-0.21,45.06,29.36,-15.16,4
2955183,0.72,0.02,0.66,1.96,-1.32,-0.32,45.06,29.36,-15.16,4
2955194,0.72,0.01,0.67,1.77,-1.33,-0.3,45.06,29.36,-15.16,4
2955207,0.72,0.02,0.66,1.53,-1.28,0.02,45.06,29.36,-15.16,4
2955218,0.72,0.02,0.66,1.56,-1.2,0.16,45.06,29.36,-15.16,4
2955229,0.72,0.02,0.66,1.54,-1.19,0.19,45.08,29.38,-15.14,4
2955241,0.72,0.02,0.66,1.85,-1.05,0.22,45.08,29.38,-15.14,4
2955252,0.72,0.01,0.67,1.98,-1.03,0.13,45.08,29.38,-15.14,4
2955265,0.72,0.01,0.67,1.79,-1.13,0.09,45.08,29.38,-15.14,4
2955277,0.72,0.01,0.67,1.66,-1.07,0.21,45.16,29.27,-15.25,4
2955287,0.72,0.02,0.66,1.61,-1.05,0.24,45.16,29.27,-15.25,4
2955297,0.72,0.02,0.66,1.56,-1.07,0.17,45.16,29.27,-15.25,4
2955308,0.72,0.02,0.66,1.75,-1.11,0.03,45.16,29.27,-15.25,4
2955319,0.72,0.02,0.66,1.86,-1.17,-0.13,45.07,29.27,-15.2,4
2955331,0.72,0.02,0.66,1.83,-1.17,-0.19,45.07,29.27,-15.2,4
2955342,0.72,0.02,0.66,1.8,-1.11,-0.13,45.07,29.27,-15.2,4
2955353,0.72,0.02,0.67,1.79,-1.13,-0.07,45.07,29.27,-15.2,4
2955365,0.72,0.02,0.67,1.79,-1.15,-0.06,45.07,29.27,-15.2,4
2955378,0.72,0.02,0.67,1.73,-1.17,0.09,45.02,29.22,-14.89,4
2955388,0.72,0.01,0.67,1.68,-1.1,0.18,45.02,29.22,-14.89,4
2955399,0.72,0.02,0.67,1.62,-1.12,0.26,45.02,29.22,-14.89,4
2955413,0.72,0.02,0.66,1.69,-1.16,0.19,45.02,29.22,-14.89,4
2955423,0.72,0.02,0.66,1.72,-1.21,0.02,45.0,29.31,-14.82,4
2955435,0.72,0.02,0.66,1.74,-1.24,-0.12,45.0,29.31,-14.82,4
2955447,0.72,0.01,0.66,1.84,-1.29,-0.31,45.0,29.31,-14.82,4
2955459,0.72,0.01,0.67,1.76,-1.33,-0.31,45.0,29.31,-14.82,4
2955470,0.72,0.01,0.66,1.65,-1.33,-0.16,44.96,29.44,-14.75,4
2955481,0.72,0.01,0.67,1.7,-1.2,0.21,44.96,29.44,-14.75,4
2955493,0.72,0.01,0.66,1.64,-1.14,0.23,44.96,29.44,-14.75,4
2955506,0.72,0.02,0.66,1.7,-1.15,0.26,44.96,29.44,-14.75,4
2955519,0.72,0.02,0.67,1.73,-1.15,0.18,44.95,29.42,-14.76,4
2955533,0.72,0.02,0.66,1.77,-1.17,-0.01,44.95,29.42,-14.76,4
2955543,0.72,0.02,0.66,1.77,-1.14,-0.02,44.95,29.42,-14.76,4
2955554,0.72,0.01,0.66,1.81,-1.15,0.03,44.95,29.42,-14.76,4
2955567,0.72,0.01,0.66,1.74,-1.21,-0.01,44.95,29.42,-14.76,4
2955578,0.72,0.02,0.66,1.72,-1.29,-0.01,45.04,29.51,-14.78,4
2955591,0.72,0.02,0.66,1.65,-1.3,0.0,45.04,29.51,-14.78,4
2955602,0.72,0.02,0.66,1.72,-1.27,0.15,45.04,29.51,-14.78,4
2955614,0.72,0.02,0.66,1.94,-1.18,0.24,45.04,29.51,-14.78,4
2955625,0.72,0.01,0.66,1.96,-1.24,0.23,45.01,29.54,-14.85,4
2955636,0.72,0.01,0.66,1.8,-1.31,0.31,45.01,29.54,-14.85,4
2955648,0.72,0.01,0.66,1.61,-1.31,0.42,45.01,29.54,-14.85,4
2955661,0.72,0.02,0.66,1.42,-1.27,0.57,45.01,29.54,-14.85,4
2955672,0.72,0.02,0.66,1.45,-1.24,0.43,45.01,29.48,-15.14,4
2955684,0.72,0.02,0.66,1.62,-1.21,0.12,45.01,29.48,-15.14,4
2955696,0.72,0.02,0.67,1.98,-1.18,-0.4,45.01,29.48,-15.14,4
2955708,0.72,0.01,0.67,1.95,-1.17,-0.35,45.01,29.48,-15.14,4
2955718,0.72,0.01,0.67,1.82,-1.18,-0.15,44.87,29.47,-15.07,4
2955730,0.72,0.01,0.67,1.41,-1.32,0.18,44.87,29.47,-15.07,4
2955742,0.72,0.02,0.66,1.31,-1.31,0.28,44.87,29.47,-15.07,4
2955754,0.72,0.02,0.66,1.62,-1.19,0.37,44.87,29.47,-15.07,4
2955765,0.72,0.02,0.66,1.75,-1.13,0.37,44.87,29.47,-15.07,4
2955776,0.72,0.01,0.66,1.81,-1.15,0.41,44.88,29.42,-15.21,4
2955790,0.72,0.01,0.66,1.65,-1.22,0.37,44.88,29.42,-15.21,4
2955801,0.72,0.02,0.66,1.57,-1.26,0.32,44.88,29.42,-15.21,4
2955813,0.72,0.02,0.66,1.6,-1.27,0.15,44.88,29.42,-15.21,4
2955826,0.72,0.01,0.67,1.83,-1.34,-0.08,44.89,29.47,-15.23,4
2955837,0.72,0.01,0.67,1.81,-1.29,-0.12,44.89,29.47,-15.23,4
2955848,0.72,0.01,0.67,1.47,-1.13,0.25,44.89,29.47,-15.23,4
2955859,0.72,0.02,0.67,1.31,-1.07,0.38,44.89,29.47,-15.23,4
2955870,0.72,0.02,0.67,1.26,-1.09,0.35,44.9,29.5,-15.1,4
2955883,0.72,0.02,0.67,1.59,-1.08,0.08,44.9,29.5,-15.1,4
2955894,0.72,0.02,0.67,1.81,-1.07,-0.11,44.9,29.5,-15.1,4
2955906,0.72,0.02,0.67,1.89,-1.18,-0.26,44.9,29.5,-15.1,4
2955920,0.72,0.01,0.67,1.83,-1.18,-0.07,44.94,29.49,-15.33,4
2955932,0.72,0.01,0.67,1.71,-1.08,0.25,44.94,29.49,-15.33,4
2955945,0.72,0.02,0.67,1.59,-0.98,0.52,44.94,29.49,-15.33,4
2955957,0.72,0.02,0.67,1.59,-1.02,0.37,44.94,29.49,-15.33,4
2955970,0.72,0.02,0.67,1.6,-1.12,0.13,44.96,29.44,-15.25,4
2955981,0.72,0.02,0.66,1.69,-1.05,0.12,44.96,29.44,-15.25,4
2955993,0.72,0.02,0.66,1.67,-1.0,0.13,44.96,29.44,-15.25,4
2956005,0.72,0.02,0.66,1.48,-1.11,0.25,44.96,29.44,-15.25,4
2956016,0.72,0.02,0.66,1.53,-1.11,0.27,44.96,29.44,-15.25,4
2956027,0.72,0.02,0.66,1.69,-1.07,0.28,44.83,29.4,-15.17,4
2956039,0.72,0.02,0.66,1.73,-1.05,0.0,44.83,29.4,-15.17,4
2956051,0.72,0.02,0.66,1.79,-1.11,-0.17,44.83,29.4,-15.17,4
2956063,0.72,0.02,0.66,1.81,-1.19,-0.27,44.83,29.4,-15.17,4
2956075,0.72,0.02,0.66,1.79,-1.18,-0.16,44.78,29.39,-15.01,4
2956087,0.72,0.01,0.66,1.72,-1.16,-0.07,44.78,29.39,-15.01,4
2956098,0.72,0.01,0.66,1.47,-1.25,-0.08,44.78,29.39,-15.01,4
2956109,0.72,0.02,0.66,1.46,-1.31,-0.06,44.78,29.39,-15.01,4
2956120,0.72,0.02,0.66,1.55,-1.28,0.02,44.82,29.33,-14.77,4
2956133,0.72,0.02,0.66,1.93,-1.01,0.11,44.82,29.33,-14.77,4
2956145,0.72,0.02,0.66,2.08,-0.96,-0.05,44.82,29.33,-14.77,4
2956158,0.72,0.02,0.66,2.14,-1.23,-0.44,44.82,29.33,-14.77,4
2956170,0.72,0.01,0.66,2.0,-1.25,-0.32,44.86,29.36,-14.91,4
2956181,0.72,0.01,0.66,1.84,-1.22,-0.06,44.86,29.36,-14.91,4
2956194,0.72,0.01,0.66,1.57,-1.14,0.27,44.86,29.36,-14.91,4
2956205,0.72,0.02,0.66,1.52,-1.14,0.37,44.86,29.36,-14.91,4
2956218,0.72,0.02,0.66,1.6,-1.11,0.36,44.92,29.43,-14.99,4
2956228,0.72,0.02,0.67,1.79,-1.01,0.2,44.92,29.43,-14.99,4
2956240,0.72,0.02,0.67,1.8,-1.0,-0.13,44.92,29.43,-14.99,4
2956253,0.72,0.02,0.67,1.83,-1.13,-0.43,44.92,29.43,-14.99,4
2956265,0.72,0.02,0.67,1.79,-1.2,-0.48,44.92,29.43,-14.99,4
2956276,0.72,0.02,0.67,1.79,-1.22,-0.43,44.93,29.35,-15.09,4
2956288,0.72,0.02,0.66,1.91,-1.18,-0.45,44.93,29.35,-15.09,4
2956299,0.72,0.01,0.67,1.99,-1.19,-0.44,44.93,29.35,-15.09,4
2956310,0.72,0.01,0.67,2.01,-1.2,-0.43,44.93,29.35,-15.09,4
2956323,0.72,0.01,0.66,1.79,-1.18,-0.17,45.04,29.36,-15.05,4
2956333,0.72,0.01,0.66,1.66,-1.09,0.14,45.04,29.36,-15.05,4
2956344,0.72,0.02,0.66,1.59,-1.01,0.38,45.04,29.36,-15.05,4
2956357,0.72,0.02,0.67,1.77,-1.04,0.38,45.04,29.36,-15.05,4
2956368,0.72,0.02,0.67,1.85,-1.1,0.14,45.0,29.43,-14.96,4
2956381,0.72,0.02,0.67,1.95,-1.2,-0.22,45.0,29.43,-14.96,4
2956392,0.72,0.01,0.67,1.9,-1.17,-0.23,45.0,29.43,-14.96,4
2956403,0.72,0.01,0.67,1.78,-1.15,-0.07,45.0,29.43,-14.96,4
2956418,0.72,0.02,0.66,1.7,-1.22,0.16,44.95,29.51,-14.88,4
2956429,0.72,0.02,0.66,1.8,-1.27,0.1,44.95,29.51,-14.88,4
2956443,0.72,0.01,0.66,1.92,-1.31,0.07,44.95,29.51,-14.88,4
2956454,0.72,0.01,0.66,1.84,-1.28,0.21,44.95,29.51,-14.88,4
2956468,0.72,0.01,0.67,1.39,-1.15,0.52,45.03,29.47,-14.86,4
2956480,0.72,0.01,0.67,1.19,-1.09,0.55,45.03,29.47,-14.86,4
2956491,0.72,0.01,0.67,1.08,-1.06,0.44,45.03,29.47,-14.86,4
2956503,0.72,0.02,0.67,1.22,-1.03,-0.06,45.03,29.47,-14.86,4
2956515,0.72,0.02,0.66,1.26,-1.02,-0.28,45.03,29.47,-14.86,4
2956525,0.72,0.02,0.66,1.32,-0.97,-0.43,45.07,29.48,-15.0,4
2956537,0.72,0.02,0.66,1.56,-0.89,-0.85,45.07,29.48,-15.0,4
2956549,0.72,0.02,0.66,1.79,-0.89,-1.09,45.07,29.48,-15.0,4
2956562,0.72,0.02,0.66,2.11,-1.08,-1.49,45.07,29.48,-15.0,4
2956573,0.72,0.01,0.66,2.12,-1.15,-1.5,45.02,29.53,-14.82,4
2956585,0.72,0.01,0.66,2.07,-1.1,-1.26,45.02,29.53,-14.82,4
2956597,0.72,0.01,0.67,1.73,-1.04,-0.48,45.02,29.53,-14.82,4
2956609,0.72,0.01,0.67,1.51,-1.04,-0.2,45.02,29.53,-14.82,4
2956620,0.72,0.01,0.67,1.39,-1.07,-0.03,44.94,29.5,-14.96,4
2956631,0.72,0.02,0.66,1.63,-0.99,-0.01,44.94,29.5,-14.96,4
2956643,0.72,0.02,0.66,1.86,-0.98,-0.15,44.94,29.5,-14.96,4
2956655,0.72,0.02,0.66,2.15,-1.08,-0.31,44.94,29.5,-14.96,4
2956667,0.72,0.01,0.67,2.42,-1.35,-0.46,44.96,29.53,-14.85,4
2956679,0.72,0.01,0.67,2.33,-1.47,-0.25,44.96,29.53,-14.85,4
2956692,0.72,0.01,0.67,2.05,-1.47,0.59,44.96,29.53,-14.85,4
2956704,0.72,0.01,0.67,1.93,-1.43,1.01,44.96,29.53,-14.85,4
2956718,0.72,0.01,0.66,1.68,-1.44,1.16,44.95,29.65,-14.95,4
2956730,0.72,0.02,0.66,1.67,-1.52,0.92,44.95,29.65,-14.95,4
2956743,0.72,0.02,0.66,1.63,-1.52,0.66,44.95,29.65,-14.95,4
2956755,0.72,0.02,0.66,1.66,-1.41,0.71,44.95,29.65,-14.95,4
2956768,0.72,0.02,0.66,1.68,-1.24,0.61,44.84,29.5,-14.95,4
2956780,0.72,0.02,0.66,1.75,-1.26,0.42,44.84,29.5,-14.95,4
2956792,0.72,0.02,0.66,1.88,-1.29,0.15,44.84,29.5,-14.95,4
2956803,0.72,0.01,0.66,2.16,-1.42,-0.24,44.84,29.5,-14.95,4
2956815,0.72,0.01,0.67,2.11,-1.48,-0.23,44.84,29.5,-14.95,4
2956826,0.72,0.01,0.67,1.98,-1.45,-0.0,44.81,29.66,-14.98,4
2956838,0.72,0.01,0.67,1.67,-1.19,0.47,44.81,29.66,-14.98,4
2956849,0.72,0.02,0.67,1.55,-1.13,0.47,44.81,29.66,-14.98,4
2956862,0.72,0.02,0.66,1.83,-1.09,-0.17,44.81,29.66,-14.98,4
2956874,0.72,0.02,0.67,1.92,-1.14,-0.52,44.79,29.66,-14.85,4
2956885,0.72,0.01,0.66,1.93,-1.15,-0.73,44.79,29.66,-14.85,4
2956896,0.72,0.01,0.67,1.78,-1.13,-0.49,44.79,29.66,-14.85,4
2956907,0.72,0.01,0.67,1.55,-1.11,-0.18,44.79,29.66,-14.85,4
2956919,0.72,0.01,0.67,1.38,-1.15,0.05,44.78,29.66,-14.93,4
2956932,0.72,0.02,0.67,1.28,-1.16,0.04,44.78,29.66,-14.93,4
2956944,0.72,0.02,0.67,1.39,-1.15,-0.13,44.78,29.66,-14.93,4
2956954,0.72,0.02,0.67,1.54,-1.12,-0.28,44.78,29.66,-14.93,4
2956968,0.72,0.02,0.67,1.94,-1.05,-0.59,44.85,29.72,-14.95,4
2956980,0.72,0.02,0.66,2.16,-1.03,-0.69,44.85,29.72,-14.95,4
2956991,0.72,0.01,0.66,2.3,-1.05,-0.7,44.85,29.72,-14.95,4
2957001,0.72,0.01,0.66,2.15,-1.12,-0.6,44.85,29.72,-14.95,4
2957013,0.72,0.01,0.66,1.91,-1.15,-0.36,44.85,29.72,-14.95,4
2957025,0.72,0.01,0.66,1.75,-1.15,0.21,44.85,29.76,-15.02,4
2957036,0.72,0.01,0.66,1.68,-1.07,0.23,44.85,29.76,-15.02,4
2957047,0.72,0.01,0.66,1.66,-1.06,0.18,44.85,29.76,-15.02,4
2957061,0.72,0.01,0.66,1.81,-1.1,-0.11,44.85,29.76,-15.02,4
2957072,0.72,0.01,0.66,1.8,-1.14,-0.14,44.75,29.79,-15.11,4
2957084,0.72,0.01,0.66,1.77,-1.15,-0.11,44.75,29.79,-15.11,4
2957095,0.72,0.02,0.66,1.8,-1.13,-0.07,44.75,29.79,-15.11,4
2957107,0.72,0.01,0.66,1.93,-1.15,-0.06,44.75,29.79,-15.11,4
2957118,0.72,0.01,0.66,2.05,-1.19,-0.14,44.8,29.89,-15.14,4
2957130,0.72,0.01,0.67,2.05,-1.3,-0.39,44.8,29.89,-15.14,4
2957141,0.72,0.01,0.67,1.9,-1.31,-0.39,44.8,29.89,-15.14,4
2957154,0.72,0.01,0.67,1.6,-1.27,0.23,44.8,29.89,-15.14,4
2957166,0.72,0.01,0.66,1.6,-1.23,0.41,44.92,29.81,-15.28,4
2957177,0.72,0.02,0.66,1.55,-1.25,0.36,44.92,29.81,-15.28,4
2957188,0.72,0.02,0.66,1.69,-1.27,0.04,44.92,29.81,-15.28,4
2957199,0.72,0.01,0.66,1.74,-1.27,-0.13,44.92,29.81,-15.28,4
2957211,0.72,0.01,0.67,1.72,-1.24,-0.17,44.92,29.81,-15.28,4
2957224,0.72,0.01,0.67,1.7,-1.13,-0.14,44.9,29.91,-15.37,4
2957236,0.72,0.01,0.67,1.7,-1.11,-0.14,44.9,29.91,-15.37,4
2957246,0.72,0.02,0.67,1.71,-1.13,-0.17,44.9,29.91,-15.37,4
2957256,0.72,0.02,0.66,1.79,-1.14,-0.2,44.9,29.91,-15.37,4
2957268,0.72,0.01,0.66,2.03,-1.1,-0.33,44.91,29.92,-15.13,4
2957280,0.72,0.01,0.66,2.1,-1.14,-0.43,44.91,29.92,-15.13,4
2957294,0.72,0.01,0.66,2.01,-1.15,-0.52,44.91,29.92,-15.13,4
2957305,0.72,0.01,0.66,1.93,-1.14,-0.36,44.91,29.92,-15.13,4
2957316,0.72,0.01,0.67,1.77,-1.12,-0.11,44.88,29.97,-15.1,4
2957327,0.72,0.01,0.66,1.69,-1.07,0.14,44.88,29.97,-15.1,4
2957339,0.72,0.01,0.67,1.76,-1.09,0.09,44.88,29.97,-15.1,4
2957350,0.72,0.01,0.67,1.76,-1.17,0.01,44.88,29.97,-15.1,4
2957362,0.72,0.01,0.66,1.98,-1.18,-0.24,44.88,29.97,-15.1,4
2957373,0.72,0.01,0.67,2.07,-1.2,-0.4,44.97,29.9,-15.15,4
2957385,0.72,0.01,0.67,2.03,-1.21,-0.35,44.97,29.9,-15.15,4
2957396,0.72,0.01,0.66,1.92,-1.17,0.03,44.97,29.9,-15.15,4
2957408,0.72,0.01,0.67,1.78,-1.21,0.09,44.97,29.9,-15.15,4
2957419,0.72,0.01,0.66,1.6,-1.24,0.11,45.05,29.79,-15.22,4
2957431,0.72,0.01,0.66,1.51,-1.24,0.21,45.05,29.79,-15.22,4
2957442,0.72,0.01,0.67,1.46,-1.16,0.27,45.05,29.79,-15.22,4
2957456,0.72,0.01,0.67,1.39,-1.05,0.3,45.05,29.79,-15.22,4
2957467,0.72,0.02,0.66,1.49,-1.07,0.19,44.99,29.7,-15.12,4
2957478,0.72,0.02,0.67,1.62,-1.16,-0.01,44.99,29.7,-15.12,4
2957490,0.72,0.02,0.66,1.93,-1.2,-0.57,44.99,29.7,-15.12,4
2957502,0.72,0.01,0.66,2.11,-1.26,-0.73,44.99,29.7,-15.12,4
2957516,0.72,0.01,0.66,2.16,-1.32,-0.6,44.93,29.7,-15.02,4
2957526,0.72,0.01,0.66,2.06,-1.35,-0.47,44.93,29.7,-15.02,4
2957537,0.72,0.01,0.66,1.9,-1.28,-0.34,44.93,29.7,-15.02,4
2957550,0.72,0.01,0.66,1.61,-1.16,0.06,44.93,29.7,-15.02,4
2957562,0.72,0.01,0.66,1.61,-1.11,0.18,44.93,29.7,-15.02,4
2957573,0.72,0.02,0.66,1.63,-1.07,0.24,44.91,29.67,-14.69,4
2957585,0.72,0.02,0.66,1.84,-0.95,0.2,44.91,29.67,-14.69,4
2957596,0.72,0.01,0.66,1.97,-0.9,0.1,44.91,29.67,-14.69,4
2957609,0.72,0.01,0.66,2.13,-0.86,-0.05,44.91,29.67,-14.69,4
2957621,0.72,0.01,0.66,2.01,-0.86,-0.11,44.88,29.6,-14.82,4
2957633,0.72,0.01,0.66,1.9,-0.9,-0.02,44.88,29.6,-14.82,4
2957644,0.72,0.01,0.67,1.65,-0.9,0.27,44.88,29.6,-14.82,4
2957654,0.72,0.01,0.67,1.5,-1.0,0.37,44.88,29.6,-14.82,4
2957665,0.72,0.01,0.67,1.51,-1.1,0.35,44.82,29.62,-14.81,4
2957678,0.72,0.01,0.67,1.81,-1.21,-0.05,44.82,29.62,-14.81,4
2957689,0.72,0.01,0.67,1.87,-1.21,-0.31,44.82,29.62,-14.81,4
2957700,0.72,0.01,0.67,1.82,-1.21,-0.48,44.82,29.62,-14.81,4
2957715,0.72,0.01,0.66,1.53,-1.17,-0.19,44.77,29.65,-14.67,4
2957727,0.72,0.01,0.66,1.48,-1.13,0.07,44.77,29.65,-14.67,4
2957740,0.72,0.01,0.66,1.5,-1.11,0.18,44.77,29.65,-14.67,4
2957752,0.72,0.01,0.66,1.61,-1.16,0.04,44.77,29.65,-14.67,4
2957766,0.72,0.01,0.66,2.03,-1.23,-0.38,44.76,29.76,-14.73,4
2957778,0.72,0.01,0.67,2.15,-1.24,-0.58,44.76,29.76,-14.73,4
2957788,0.72,0.01,0.67,2.11,-1.24,-0.63,44.76,29.76,-14.73,4
2957800,0.72,0.01,0.66,2.03,-1.14,-0.29,44.76,29.76,-14.73,4
2957811,0.72,0.01,0.66,1.92,-1.11,-0.08,44.76,29.76,-14.73,4
2957822,0.72,0.01,0.66,1.79,-1.07,0.11,44.72,29.76,-14.57,4
2957834,0.72,0.01,0.66,1.68,-1.02,0.29,44.72,29.76,-14.57,4
2957846,0.72,0.01,0.66,1.64,-1.03,0.21,44.72,29.76,-14.57,4
2957858,0.72,0.01,0.66,1.62,-0.99,0.07,44.72,29.76,-14.57,4
2957870,0.72,0.01,0.66,1.63,-0.99,0.04,44.82,29.79,-14.41,4
2957881,0.72,0.01,0.66,1.62,-1.03,-0.01,44.82,29.79,-14.41,4
2957892,0.72,0.01,0.66,1.6,-1.06,-0.13,44.82,29.79,-14.41,4
2957903,0.72,0.01,0.66,1.71,-1.15,-0.29,44.82,29.79,-14.41,4
2957916,0.72,0.01,0.66,1.89,-1.18,-0.45,44.74,29.89,-14.77,4
2957928,0.72,0.01,0.67,2.02,-1.13,-0.52,44.74,29.89,-14.77,4
2957940,0.72,0.01,0.67,2.02,-1.04,-0.46,44.74,29.89,-14.77,4
2957951,0.72,0.01,0.67,1.9,-1.03,-0.33,44.74,29.89,-14.77,4
2957963,0.72,0.01,0.66,1.55,-1.03,-0.14,44.74,29.89,-14.77,4
2957974,0.72,0.01,0.66,1.59,-1.0,-0.2,44.8,29.8,-14.83,4
2957987,0.72,0.01,0.66,1.66,-1.02,-0.51,44.8,29.8,-14.83,4
2957998,0.72,0.01,0.66,1.72,-1.08,-0.56,44.8,29.8,-14.83,4
2958009,0.72,0.01,0.66,1.77,-1.06,-0.54,44.8,29.8,-14.83,4
2958021,0.72,0.01,0.66,1.73,-1.04,-0.47,44.84,29.87,-14.83,4
2958032,0.72,0.01,0.66,1.69,-0.98,-0.38,44.84,29.87,-14.83,4
2958044,0.72,0.01,0.66,1.73,-0.93,-0.35,44.84,29.87,-14.83,4
2958057,0.72,0.01,0.67,1.69,-1.06,-0.48,44.84,29.87,-14.83,4
2958068,0.72,0.01,0.67,1.62,-1.11,-0.41,44.95,29.87,-14.96,4
2958080,0.72,0.01,0.66,1.66,-1.07,-0.27,44.95,29.87,-14.96,4
2958092,0.72,0.01,0.66,1.59,-0.99,-0.15,44.95,29.87,-14.96,4
2958103,0.72,0.01,0.66,1.7,-0.99,-0.11,44.95,29.87,-14.96,4
2958114,0.72,0.01,0.66,1.75,-1.02,-0.13,44.97,29.79,-14.83,4
2958126,0.72,0.01,0.66,1.61,-1.14,-0.09,44.97,29.79,-14.83,4
2958138,0.72,0.01,0.66,1.52,-1.11,0.06,44.97,29.79,-14.83,4
2958151,0.72,0.01,0.66,1.58,-1.07,0.38,44.97,29.79,-14.83,4
2958163,0.72,0.01,0.66,1.62,-1.07,0.39,44.97,29.79,-14.83,4
2958174,0.72,0.01,0.66,1.64,-1.05,0.29,44.97,29.85,-14.98,4
2958186,0.72,0.01,0.66,1.49,-1.03,0.16,44.97,29.85,-14.98,4
2958197,0.72,0.01,0.66,1.43,-1.05,0.24,44.97,29.85,-14.98,4
2958210,0.72,0.01,0.66,1.58,-0.99,0.27,44.97,29.85,-14.98,4
2958222,0.72,0.01,0.66,1.64,-1.02,0.09,45.0,29.86,-15.01,4
2958234,0.72,0.01,0.66,1.65,-1.04,-0.07,45.0,29.86,-15.01,4
2958244,0.72,0.01,0.66,1.69,-0.99,-0.18,45.0,29.86,-15.01,4
2958255,0.72,0.01,0.66,1.61,-1.02,-0.11,45.0,29.86,-15.01,4
2958266,0.72,0.01,0.66,1.53,-1.04,-0.01,44.92,29.95,-14.94,4
2958279,0.72,0.01,0.66,1.54,-1.02,0.09,44.92,29.95,-14.94,4
2958290,0.72,0.01,0.66,1.54,-1.01,0.07,44.92,29.95,-14.94,4
2958302,0.72,0.01,0.66,1.55,-1.03,0.08,44.92,29.95,-14.94,4
2958316,0.72,0.01,0.66,1.72,-1.07,-0.02,45.04,30.01,-15.12,4
2958328,0.72,0.01,0.66,1.85,-1.08,-0.07,45.04,30.01,-15.12,4
2958341,0.72,0.01,0.66,1.95,-0.96,-0.12,45.04,30.01,-15.12,4
2958353,0.72,0.01,0.66,1.94,-0.91,-0.03,45.04,30.01,-15.12,4
2958364,0.72,0.01,0.66,1.86,-0.83,0.06,45.06,30.03,-15.16,4
2958375,0.72,0.01,0.66,1.76,-0.76,0.17,45.06,30.03,-15.16,4
2958386,0.72,0.01,0.66,1.72,-0.7,0.1,45.06,30.03,-15.16,4
2958399,0.72,0.01,0.66,1.52,-0.71,0.18,45.06,30.03,-15.16,4
2958410,0.72,0.01,0.66,1.52,-0.66,0.15,45.06,30.03,-15.16,4
2958421,0.72,0.01,0.66,1.59,-0.65,0.01,44.98,29.98,-15.02,4
2958433,0.72,0.01,0.66,1.82,-0.56,-0.37,44.98,29.98,-15.02,4
2958444,0.72,0.01,0.66,1.97,-0.53,-0.58,44.98,29.98,-15.02,4
2958456,0.72,0.01,0.66,1.95,-0.51,-0.68,44.98,29.98,-15.02,4
2958468,0.72,0.01,0.66,1.68,-0.53,-0.37,44.9,29.96,-14.77,4
2958479,0.72,0.01,0.66,1.63,-0.44,-0.17,44.9,29.96,-14.77,4
2958491,0.72,0.01,0.66,1.55,-0.39,-0.09,44.9,29.96,-14.77,4
2958504,0.72,0.01,0.66,1.55,-0.33,-0.09,44.9,29.96,-14.77,4
2958516,0.72,0.01,0.66,1.72,-0.29,-0.12,44.97,29.86,-14.78,4
2958526,0.72,0.01,0.66,1.88,-0.17,-0.08,44.97,29.86,-14.78,4
2958536,0.72,0.01,0.66,2.02,0.02,-0.13,44.97,29.86,-14.78,4
2958547,0.72,0.0,0.66,1.99,0.02,-0.07,44.97,29.86,-14.78,4
2958559,0.72,0.0,0.66,1.78,-0.01,0.09,44.97,29.86,-14.78,4
2958571,0.72,0.01,0.66,1.28,-0.15,0.47,44.94,29.84,-14.71,4
2958582,0.72,0.01,0.66,1.28,-0.14,0.49,44.94,29.84,-14.71,4
2958593,0.72,0.01,0.66,1.32,-0.21,0.31,44.94,29.84,-14.71,4
2958607,0.72,0.01,0.66,1.43,-0.44,-0.1,44.94,29.84,-14.71,4
2958618,0.72,0.01,0.66,1.5,-0.53,-0.18,45.0,29.9,-14.87,4
2958630,0.73,0.01,0.66,1.53,-0.63,-0.16,45.0,29.9,-14.87,4
2958642,0.73,0.01,0.66,1.6,-0.73,0.19,45.0,29.9,-14.87,4
2958652,0.72,0.01,0.66,1.62,-0.76,0.31,45.0,29.9,-14.87,4
2958662,0.72,0.01,0.66,1.55,-0.79,0.4,45.0,29.9,-14.87,4
2958673,0.72,0.01,0.66,1.46,-0.8,0.47,44.98,29.89,-14.82,4
2958684,0.72,0.01,0.66,1.33,-0.75,0.54,44.98,29.89,-14.82,4
2958696,0.72,0.01,0.66,1.33,-0.77,0.42,44.98,29.89,-14.82,4
2958710,0.72,0.01,0.66,1.52,-0.83,0.07,44.98,29.89,-14.82,4
2958720,0.72,0.01,0.66,1.6,-0.82,-0.08,44.97,29.87,-14.81,4
2958732,0.73,0.01,0.66,1.65,-0.83,-0.17,44.97,29.87,-14.81,4
2958744,0.73,0.01,0.66,1.6,-0.91,-0.19,44.97,29.87,-14.81,4
2958756,0.72,0.01,0.66,1.51,-0.88,-0.11,44.97,29.87,-14.81,4
2958767,0.72,0.01,0.66,1.42,-0.86,-0.01,45.11,29.91,-14.9,4
2958779,0.72,0.01,0.66,1.35,-0.89,0.21,45.11,29.91,-14.9,4
2958789,0.73,0.01,0.66,1.32,-0.95,0.27,45.11,29.91,-14.9,4
2958800,0.73,0.01,0.66,1.3,-1.02,0.36,45.11,29.91,-14.9,4
2958815,0.72,0.01,0.66,1.37,-1.13,0.47,45.16,29.94,-14.93,4
2958826,0.72,0.01,0.66,1.37,-1.13,0.43,45.16,29.94,-14.93,4
2958837,0.72,0.01,0.66,1.34,-1.18,0.05,45.16,29.94,-14.93,4
2958848,0.73,0.01,0.66,1.42,-1.13,0.0,45.16,29.94,-14.93,4
2958859,0.72,0.01,0.66,1.58,-1.06,-0.03,45.16,29.94,-14.93,4
2958871,0.72,0.01,0.66,2.01,-1.12,-0.51,45.24,29.99,-14.74,4
2958882,0.73,0.01,0.66,2.22,-1.17,-0.83,45.24,29.99,-14.74,4
2958894,0.73,0.01,0.66,2.45,-1.27,-1.0,45.24,29.99,-14.74,4
2958908,0.73,-0.0,0.66,2.43,-1.31,-0.41,45.24,29.99,-14.74,4
2958919,0.72,-0.01,0.66,2.2,-1.21,0.15,45.19,29.91,-14.7,4
2958931,0.72,-0.0,0.66,1.27,-1.02,1.09,45.19,29.91,-14.7,4
2958942,0.72,0.01,0.66,1.1,-0.92,1.28,45.19,29.91,-14.7,4
2958954,0.72,0.02,0.66,1.14,-0.78,1.13,45.19,29.91,-14.7,4
2958966,0.72,0.02,0.66,1.47,-0.61,0.19,45.24,29.95,-14.71,4
2958977,0.73,0.02,0.66,1.75,-0.58,-0.3,45.24,29.95,-14.71,4
2958988,0.72,0.02,0.66,1.96,-0.59,-0.72,45.24,29.95,-14.71,4
2959002,0.72,0.01,0.66,2.01,-0.71,-1.31,45.24,29.95,-14.71,4
2959013,0.72,0.01,0.66,1.98,-0.68,-1.45,45.29,29.99,-14.71,4
2959024,0.73,0.01,0.66,2.0,-0.74,-1.56,45.29,29.99,-14.71,4
2959036,0.73,0.0,0.66,2.1,-0.78,-1.33,45.29,29.99,-14.71,4
2959048,0.73,0.0,0.66,2.01,-0.57,-1.09,45.29,29.99,-14.71,4
2959061,0.72,0.0,0.66,1.77,-0.64,-0.77,45.29,29.99,-14.71,4
2959072,0.73,0.01,0.66,1.37,-0.72,-0.28,45.28,30.09,-14.93,4
2959084,0.73,0.01,0.66,1.21,-0.63,0.09,45.28,30.09,-14.93,4
2959095,0.73,0.01,0.66,1.21,-0.54,0.32,45.28,30.09,-14.93,4
2959106,0.73,0.01,0.66,1.22,-0.55,0.33,45.28,30.09,-14.93,4
2959117,0.73,0.01,0.66,1.3,-0.58,0.22,45.28,30.07,-15.1,4
2959127,0.73,0.01,0.66,1.38,-0.56,-0.02,45.28,30.07,-15.1,4
2959138,0.73,0.01,0.66,1.49,-0.51,-0.46,45.28,30.07,-15.1,4
2959148,0.73,0.01,0.66,1.57,-0.56,-0.67,45.28,30.07,-15.1,4
2959159,0.73,0.01,0.66,1.6,-0.56,-0.9,45.28,30.07,-15.1,4
2959170,0.73,0.01,0.66,1.61,-0.53,-1.05,45.36,30.03,-15.18,4
2959181,0.73,0.01,0.66,1.67,-0.31,-1.01,45.36,30.03,-15.18,4
2959191,0.72,0.01,0.66,1.72,-0.19,-0.95,45.36,30.03,-15.18,4
2959202,0.73,0.01,0.66,1.67,-0.16,-0.93,45.36,30.03,-15.18,4
2959212,0.73,0.01,0.66,1.59,-0.18,-0.9,45.35,30.07,-14.95,4
2959224,0.73,0.01,0.66,1.54,-0.21,-0.78,45.35,30.07,-14.95,4
2959235,0.73,0.01,0.66,1.47,-0.23,-0.63,45.35,30.07,-14.95,4
2959245,0.73,0.01,0.66,1.42,-0.28,-0.51,45.35,30.07,-14.95,4
2959255,0.73,0.01,0.66,1.51,-0.27,-0.48,45.35,30.07,-14.95,4
2959266,0.73,0.01,0.66,1.71,-0.2,-0.44,45.29,30.05,-14.94,4
2959277,0.73,0.01,0.66,1.67,-0.18,-0.41,45.29,30.05,-14.94,4
2959289,0.73,0.01,0.66,1.57,-0.12,-0.44,45.29,30.05,-14.94,4
2959303,0.73,0.01,0.66,1.28,-0.15,-0.27,45.29,30.05,-14.94,4
2959313,0.73,0.01,0.65,1.22,-0.07,-0.21,45.22,30.09,-14.96,4
2959325,0.73,0.01,0.65,1.26,0.02,-0.26,45.22,30.09,-14.96,4
2959337,0.73,0.01,0.65,1.35,0.21,-0.64,45.22,30.09,-14.96,4
2959349,0.73,0.01,0.65,1.31,0.21,-0.79,45.22,30.09,-14.96,4
2959361,0.73,0.01,0.66,1.26,0.68,-0.94,45.22,30.09,-14.96,4
2959373,0.73,0.01,0.65,1.25,1.2,-1.13,45.15,30.06,-15.03,4
2959383,0.73,0.01,0.65,1.46,1.45,-1.09,45.15,30.06,-15.03,4
2959393,0.73,0.01,0.65,1.8,1.73,-0.87,45.15,30.06,-15.03,4
2959406,0.73,0.0,0.66,1.86,2.38,-0.45,45.15,30.06,-15.03,4
2959417,0.73,0.0,0.66,1.68,2.64,-0.26,45.15,30.07,-14.99,4
2959428,0.73,0.0,0.65,1.58,2.84,-0.05,45.15,30.07,-14.99,4
2959440,0.73,0.01,0.65,1.3,2.99,0.53,45.15,30.07,-14.99,4
2959452,0.73,0.01,0.65,1.37,3.03,0.85,45.15,30.07,-14.99,4
2959463,0.73,0.01,0.65,1.58,3.06,1.02,45.19,30.04,-14.91,4
2959474,0.74,0.01,0.65,2.06,3.54,1.3,45.19,30.04,-14.91,4
2959486,0.74,0.01,0.65,2.37,3.7,1.09,45.19,30.04,-14.91,4
2959497,0.74,0.0,0.65,2.55,3.54,0.81,45.19,30.04,-14.91,4
2959509,0.74,0.0,0.65,2.12,2.83,0.77,45.19,30.04,-14.91,4
2959519,0.74,0.01,0.64,1.86,2.35,0.86,45.27,29.99,-14.88,4
2959531,0.74,0.01,0.64,1.74,1.93,0.89,45.27,29.99,-14.88,4
2959543,0.74,0.01,0.64,1.4,1.17,0.93,45.27,29.99,-14.88,4
2959553,0.74,0.01,0.64,1.36,0.92,1.06,45.27,29.99,-14.88,4
2959563,0.74,0.0,0.64,1.41,0.76,1.06,45.31,29.96,-14.85,4
2959577,0.74,0.01,0.64,1.28,0.56,1.06,45.31,29.96,-14.85,4
2959588,0.74,0.01,0.64,1.17,0.46,0.65,45.31,29.96,-14.85,4
2959600,0.74,0.01,0.64,1.15,0.24,0.11,45.31,29.96,-14.85,4
2959613,0.74,0.01,0.64,1.35,0.03,-0.39,45.3,29.99,-14.78,4
2959623,0.74,0.01,0.64,1.56,0.02,-0.53,45.3,29.99,-14.78,4
2959634,0.74,0.01,0.64,1.73,0.03,-0.75,45.3,29.99,-14.78,4
2959646,0.74,0.01,0.64,2.05,0.09,-0.77,45.3,29.99,-14.78,4
2959657,0.74,0.01,0.64,2.18,0.26,-0.67,45.3,29.99,-14.78,4
2959668,0.74,0.0,0.64,2.13,0.43,-0.75,45.4,29.89,-14.74,4
2959680,0.74,0.0,0.64,1.72,0.43,-0.87,45.4,29.89,-14.74,4
2959692,0.74,0.01,0.64,1.62,0.44,-0.8,45.4,29.89,-14.74,4
2959702,0.74,0.01,0.64,1.6,0.51,-0.67,45.4,29.89,-14.74,4
2959713,0.74,0.01,0.64,1.57,0.64,-0.48,45.46,29.93,-14.59,4
2959723,0.74,0.01,0.64,1.62,0.77,-0.38,45.46,29.93,-14.59,4
2959735,0.74,0.01,0.64,1.81,0.64,-0.75,45.46,29.93,-14.59,4
2959747,0.74,0.01,0.64,2.23,0.54,-1.42,45.46,29.93,-14.59,4
2959758,0.74,0.01,0.64,2.4,0.59,-1.58,45.46,29.93,-14.59,4
2959769,0.74,0.0,0.64,2.43,0.7,-1.57,45.42,29.95,-14.66,4
2959782,0.74,0.0,0.64,2.16,0.96,-0.94,45.42,29.95,-14.66,4
2959793,0.74,0.0,0.64,2.06,1.11,-0.64,45.42,29.95,-14.66,4
2959803,0.75,0.0,0.64,1.94,1.25,-0.39,45.42,29.95,-14.66,4
2959813,0.75,0.0,0.64,1.82,1.29,-0.17,45.52,29.92,-14.59,4
2959827,0.74,0.0,0.63,1.68,1.13,-0.11,45.52,29.92,-14.59,4
2959838,0.75,0.0,0.63,1.51,0.95,-0.16,45.52,29.92,-14.59,4
2959852,0.75,0.0,0.63,1.3,0.47,-0.02,45.52,29.92,-14.59,4
2959863,0.75,0.0,0.63,1.29,0.25,-0.0,45.53,29.87,-14.56,4
2959875,0.75,0.0,0.63,1.31,0.06,-0.04,45.53,29.87,-14.56,4
2959887,0.75,0.0,0.63,1.47,-0.19,-0.16,45.53,29.87,-14.56,4
2959897,0.75,0.0,0.64,1.59,-0.21,-0.07,45.53,29.87,-14.56,4
2959908,0.75,0.0,0.64,1.55,-0.22,0.11,45.53,29.87,-14.56,4
2959921,0.75,0.0,0.64,1.23,-0.14,0.57,45.62,29.84,-14.44,4
2959932,0.75,0.01,0.63,1.15,-0.11,0.66,45.62,29.84,-14.44,4
2959945,0.75,0.01,0.63,1.27,-0.25,0.52,45.62,29.84,-14.44,4
2959956,0.75,0.01,0.63,1.43,-0.39,0.29,45.62,29.84,-14.44,4
2959967,0.75,0.01,0.63,1.61,-0.53,0.01,45.65,29.84,-14.54,4
2959977,0.75,0.01,0.63,1.73,-0.63,-0.18,45.65,29.84,-14.54,4
2959988,0.75,0.01,0.63,1.79,-0.71,-0.31,45.65,29.84,-14.54,4
2959998,0.75,0.0,0.63,1.85,-0.77,-0.31,45.65,29.84,-14.54,4
2960009,0.75,0.0,0.63,1.86,-0.85,-0.26,45.65,29.84,-14.54,4
2960020,0.75,0.0,0.63,1.81,-0.93,-0.15,45.62,29.99,-14.6,4
2960030,0.75,0.01,0.63,1.71,-1.1,-0.12,45.62,29.99,-14.6,4
2960041,0.75,0.01,0.63,1.67,-1.22,-0.12,45.62,29.99,-14.6,4
2960052,0.75,0.01,0.63,1.71,-1.37,-0.2,45.62,29.99,-14.6,4
2960063,0.75,0.01,0.63,1.84,-1.45,-0.33,45.69,29.9,-14.45,4
2960074,0.75,0.01,0.63,2.07,-1.5,-0.5,45.69,29.9,-14.45,4
2960084,0.75,0.0,0.63,2.04,-1.43,-0.53,45.69,29.9,-14.45,4
2960095,0.75,0.0,0.63,1.98,-1.47,-0.44,45.69,29.9,-14.45,4
2960106,0.75,0.0,0.63,1.82,-1.55,-0.29,45.69,29.9,-14.45,4
2960119,0.75,0.0,0.63,1.55,-1.46,0.08,45.71,29.86,-14.4,4
2960131,0.75,0.0,0.63,1.65,-1.33,0.18,45.71,29.86,-14.4,4
2960144,0.75,0.0,0.63,1.74,-1.16,0.27,45.71,29.86,-14.4,4
2960156,0.75,0.0,0.63,1.72,-1.15,0.26,45.71,29.86,-14.4,4
2960166,0.75,0.01,0.63,1.68,-1.18,0.23,45.68,30.03,-14.69,4
2960178,0.75,0.01,0.63,1.48,-1.35,0.17,45.68,30.03,-14.69,4
2960190,0.75,0.01,0.63,1.41,-1.43,0.15,45.68,30.03,-14.69,4
2960202,0.75,0.01,0.63,1.52,-1.44,-0.1,45.68,30.03,-14.69,4
2960215,0.75,0.0,0.63,1.56,-1.35,-0.15,45.58,30.04,-14.52,4
2960226,0.75,0.0,0.63,1.59,-1.25,-0.13,45.58,30.04,-14.52,4
2960237,0.75,0.01,0.63,1.67,-1.13,-0.22,45.58,30.04,-14.52,4
2960248,0.75,0.01,0.63,1.74,-1.19,-0.23,45.58,30.04,-14.52,4
2960261,0.75,0.01,0.63,1.78,-1.2,-0.26,45.62,30.03,-14.37,4
2960272,0.75,0.01,0.63,1.75,-1.31,-0.36,45.62,30.03,-14.37,4
2960284,0.75,0.01,0.63,1.68,-1.32,-0.43,45.62,30.03,-14.37,4
2960297,0.75,0.0,0.63,1.72,-1.46,-0.45,45.62,30.03,-14.37,4
2960308,0.75,0.0,0.63,1.71,-1.45,-0.36,45.62,30.03,-14.37,4
2960319,0.75,0.0,0.63,1.65,-1.36,-0.18,45.58,29.93,-14.25,4
2960329,0.75,0.0,0.63,1.51,-1.27,0.11,45.58,29.93,-14.25,4
2960339,0.75,0.01,0.63,1.39,-1.22,0.28,45.58,29.93,-14.25,4
2960350,0.75,0.01,0.63,1.5,-1.3,0.33,45.58,29.93,-14.25,4
2960361,0.75,0.01,0.63,1.67,-1.36,0.14,45.57,30.05,-14.28,4
2960373,0.75,0.01,0.63,1.87,-1.44,-0.18,45.57,30.05,-14.28,4
2960385,0.75,0.0,0.63,1.79,-1.43,-0.43,45.57,30.05,-14.28,4
2960396,0.75,0.0,0.63,1.77,-1.43,-0.39,45.57,30.05,-14.28,4
2960411,0.75,0.0,0.63,1.6,-1.49,-0.16,45.57,30.02,-14.52,4
2960423,0.75,0.0,0.63,1.53,-1.56,-0.06,45.57,30.02,-14.52,4
2960433,0.75,0.01,0.63,1.48,-1.63,-0.06,45.57,30.02,-14.52,4
2960444,0.75,0.01,0.63,1.51,-1.75,-0.21,45.57,30.02,-14.52,4
2960456,0.75,0.01,0.63,1.57,-1.75,-0.27,45.57,30.02,-14.52,4
2960467,0.75,0.0,0.63,1.6,-1.77,-0.32,45.56,29.99,-14.54,4
2960479,0.75,0.01,0.63,1.54,-1.86,-0.43,45.56,29.99,-14.54,4
2960491,0.75,0.01,0.63,1.48,-1.84,-0.43,45.56,29.99,-14.54,4
2960501,0.75,0.01,0.63,1.49,-1.84,-0.47,45.56,29.99,-14.54,4
2960513,0.75,0.0,0.64,1.47,-1.53,-0.51,45.57,30.03,-14.65,4
2960523,0.75,0.0,0.64,1.42,-1.33,-0.52,45.57,30.03,-14.65,4
2960533,0.74,0.0,0.64,1.41,-1.16,-0.73,45.57,30.03,-14.65,4
2960543,0.75,0.0,0.64,1.4,-1.16,-1.0,45.57,30.03,-14.65,4
2960556,0.75,0.0,0.64,1.27,-1.24,-0.79,45.57,30.03,-14.65,4
2960567,0.75,0.0,0.63,1.38,-1.11,-0.52,45.58,29.98,-14.49,4
2960579,0.75,0.0,0.64,1.39,-1.1,-0.45,45.58,29.98,-14.49,4
2960591,0.75,0.0,0.63,1.25,-1.23,-0.46,45.58,29.98,-14.49,4
2960602,0.75,0.0,0.63,1.25,-1.34,-0.58,45.58,29.98,-14.49,4
2960613,0.75,0.01,0.63,1.24,-1.37,-0.72,45.54,30.04,-14.25,4
2960625,0.75,0.01,0.64,1.39,-1.38,-0.87,45.54,30.04,-14.25,4
2960637,0.75,0.01,0.64,1.4,-1.38,-1.0,45.54,30.04,-14.25,4
2960651,0.75,0.0,0.64,1.49,-1.51,-1.29,45.54,30.04,-14.25,4
2960661,0.75,0.0,0.64,1.55,-1.39,-1.18,45.54,30.02,-14.23,4
2960673,0.75,0.0,0.64,1.71,-1.15,-0.97,45.54,30.02,-14.23,4
2960685,0.75,0.0,0.64,1.95,-0.7,-0.67,45.54,30.02,-14.23,4
2960697,0.75,0.0,0.63,2.09,-0.6,-0.62,45.54,30.02,-14.23,4
2960707,0.75,0.0,0.63,2.23,-0.59,-0.65,45.54,30.02,-14.23,4
2960720,0.75,0.0,0.63,2.28,-0.7,-0.8,45.62,30.06,-14.3,4
2960730,0.75,0.0,0.63,2.31,-0.69,-0.72,45.62,30.06,-14.3,4
2960740,0.75,-0.0,0.63,2.3,-0.69,-0.53,45.62,30.06,-14.3,4
2960753,0.75,-0.0,0.63,2.0,-0.89,-0.13,45.62,30.06,-14.3,4
2960764,0.75,-0.0,0.63,1.87,-0.95,-0.06,45.66,29.97,-14.18,4
2960775,0.75,-0.0,0.63,1.82,-1.02,-0.04,45.66,29.97,-14.18,4
2960785,0.75,0.0,0.64,1.82,-0.94,0.08,45.66,29.97,-14.18,4
2960796,0.74,0.0,0.63,2.08,-0.82,0.32,45.66,29.97,-14.18,4
2960808,0.74,0.0,0.63,2.15,-0.87,0.11,45.66,29.97,-14.18,4
2960819,0.75,0.0,0.64,2.1,-0.96,-0.03,45.59,29.98,-14.35,4
2960831,0.75,0.0,0.63,1.93,-0.96,0.11,45.59,29.98,-14.35,4
2960841,0.75,-0.0,0.63,1.94,-0.88,0.32,45.59,29.98,-14.35,4
2960851,0.75,-0.0,0.64,1.87,-0.84,0.53,45.59,29.98,-14.35,4
2960862,0.75,-0.0,0.64,1.72,-0.8,0.74,45.68,30.05,-14.21,4
2960873,0.75,0.0,0.63,1.6,-0.76,0.94,45.68,30.05,-14.21,4
2960883,0.75,0.01,0.63,1.61,-0.74,0.8,45.68,30.05,-14.21,4
2960895,0.75,0.01,0.63,1.74,-0.81,0.58,45.68,30.05,-14.21,4
2960910,0.75,0.0,0.63,1.97,-0.97,0.05,45.64,29.92,-14.09,4
2960921,0.75,0.0,0.64,1.96,-1.0,-0.01,45.64,29.92,-14.09,4
2960935,0.75,0.0,0.63,1.87,-0.86,0.18,45.64,29.92,-14.09,4
2960945,0.75,0.0,0.63,1.83,-0.91,0.21,45.64,29.92,-14.09,4
2960956,0.75,0.0,0.63,1.75,-1.01,0.15,45.64,29.92,-14.09,4
2960969,0.75,0.0,0.63,1.78,-1.07,0.02,45.68,29.9,-14.31,4
2960980,0.75,0.0,0.63,1.83,-0.98,-0.01,45.68,29.9,-14.31,4
2960994,0.75,0.0,0.63,1.72,-0.96,0.21,45.68,29.9,-14.31,4
2961006,0.75,0.0,0.63,1.71,-0.98,0.34,45.68,29.9,-14.31,4
2961017,0.75,0.0,0.63,1.77,-0.99,0.37,45.68,29.89,-14.48,4
2961029,0.75,0.0,0.63,1.75,-1.1,0.19,45.68,29.89,-14.48,4
2961040,0.75,0.0,0.63,1.7,-1.19,0.08,45.68,29.89,-14.48,4
2961053,0.75,0.0,0.63,1.62,-1.29,-0.1,45.68,29.89,-14.48,4
2961065,0.75,0.0,0.63,1.67,-1.26,-0.09,45.77,29.89,-14.43,4
2961076,0.75,0.0,0.63,1.7,-1.23,-0.09,45.77,29.89,-14.43,4
2961087,0.75,0.0,0.63,1.64,-1.12,-0.23,45.77,29.89,-14.43,4
2961098,0.75,0.0,0.63,1.71,-1.1,-0.27,45.77,29.89,-14.43,4
2961111,0.75,0.0,0.63,1.82,-1.06,-0.29,45.68,29.9,-14.37,4
2961122,0.75,0.0,0.63,2.0,-0.92,-0.26,45.68,29.9,-14.37,4
2961132,0.75,0.0,0.63,1.99,-0.87,-0.23,45.68,29.9,-14.37,4
2961144,0.75,0.0,0.63,1.97,-0.92,-0.26,45.68,29.9,-14.37,4
2961157,0.75,0.0,0.63,1.8,-0.95,-0.24,45.68,29.9,-14.37,4
2961169,0.75,0.0,0.63,1.78,-0.94,-0.31,45.58,29.86,-14.16,4
2961179,0.75,0.0,0.63,1.78,-1.0,-0.56,45.58,29.86,-14.16,4
2961192,0.75,0.0,0.63,1.8,-1.24,-0.9,45.58,29.86,-14.16,4
2961204,0.75,-0.0,0.63,1.86,-1.25,-0.78,45.58,29.86,-14.16,4
2961216,0.75,-0.0,0.63,1.8,-1.26,-0.45,45.51,30.0,-14.38,4
2961227,0.75,0.0,0.63,1.73,-1.27,-0.28,45.51,30.0,-14.38,4
2961239,0.75,0.0,0.63,1.72,-1.24,-0.15,45.51,30.0,-14.38,4
2961249,0.75,0.0,0.63,1.79,-1.29,-0.09,45.51,30.0,-14.38,4
2961261,0.75,0.0,0.63,1.8,-1.45,-0.07,45.58,30.14,-14.38,4
2961273,0.75,0.0,0.63,1.86,-1.46,0.05,45.58,30.14,-14.38,4
2961287,0.75,-0.0,0.64,1.78,-1.43,-0.01,45.58,30.14,-14.38,4
2961297,0.75,-0.0,0.63,1.6,-1.43,0.03,45.58,30.14,-14.38,4
2961307,0.75,0.0,0.63,1.44,-1.41,0.11,45.58,30.14,-14.38,4
2961317,0.75,0.0,0.63,1.4,-1.34,0.14,45.55,30.26,-14.53,4
2961329,0.75,0.0,0.63,1.46,-1.23,0.06,45.55,30.26,-14.53,4
2961341,0.75,0.0,0.63,1.48,-1.22,-0.11,45.55,30.26,-14.53,4
2961355,0.75,0.0,0.63,1.38,-1.19,-0.28,45.55,30.26,-14.53,4
2961365,0.75,0.0,0.63,1.52,-1.12,-0.21,45.64,30.21,-14.46,4
2961377,0.75,-0.0,0.63,1.71,-1.04,-0.16,45.64,30.21,-14.46,4
2961389,0.74,-0.0,0.64,1.81,-0.91,-0.16,45.64,30.21,-14.46,4
2961401,0.74,-0.0,0.64,1.64,-1.0,-0.24,45.64,30.21,-14.46,4
2961412,0.75,0.0,0.63,1.48,-1.03,-0.28,45.51,30.25,-14.24,4
2961424,0.75,0.0,0.63,1.47,-1.08,0.02,45.51,30.25,-14.24,4
2961435,0.75,0.0,0.63,1.52,-1.09,0.19,45.51,30.25,-14.24,4
2961448,0.75,0.0,0.63,1.81,-1.19,0.14,45.51,30.25,-14.24,4
2961460,0.75,-0.0,0.63,1.84,-1.31,0.07,45.55,30.33,-14.26,4
2961471,0.75,-0.0,0.63,1.73,-1.38,0.08,45.55,30.33,-14.26,4
2961483,0.75,-0.0,0.63,1.54,-1.38,0.11,45.55,30.33,-14.26,4
2961495,0.75,0.0,0.63,1.57,-1.33,0.19,45.55,30.33,-14.26,4
2961507,0.75,0.0,0.63,1.64,-1.29,0.34,45.55,30.33,-14.26,4
2961519,0.75,0.0,0.63,1.6,-1.23,0.56,45.52,30.41,-14.22,4
2961531,0.75,0.0,0.63,1.46,-1.26,0.56,45.52,30.41,-14.22,4
2961542,0.75,0.0,0.63,1.24,-1.33,0.48,45.52,30.41,-14.22,4
2961553,0.75,0.01,0.63,1.3,-1.29,0.46,45.52,30.41,-14.22,4
2961564,0.75,0.0,0.63,1.42,-1.21,0.44,45.39,30.33,-14.0,4
2961576,0.75,0.0,0.63,1.62,-1.2,0.03,45.39,30.33,-14.0,4
2961587,0.75,0.0,0.64,1.6,-1.32,-0.3,45.39,30.33,-14.0,4
2961599,0.75,0.0,0.63,1.59,-1.44,-0.44,45.39,30.33,-14.0,4
2961611,0.75,0.0,0.63,1.75,-1.24,0.01,45.38,30.4,-14.21,4
2961622,0.75,0.0,0.63,1.84,-1.07,0.16,45.38,30.4,-14.21,4
2961633,0.75,0.0,0.63,1.88,-0.99,0.16,45.38,30.4,-14.21,4
2961647,0.75,0.0,0.63,1.94,-1.05,0.15,45.38,30.4,-14.21,4
2961660,0.75,0.0,0.63,1.94,-1.05,0.14,45.45,30.41,-13.96,4
2961673,0.75,0.0,0.63,1.83,-1.06,0.24,45.45,30.41,-13.96,4
2961685,0.75,0.0,0.63,1.8,-1.02,0.3,45.45,30.41,-13.96,4
2961695,0.75,0.0,0.63,1.79,-0.99,0.33,45.45,30.41,-13.96,4
2961705,0.75,0.0,0.63,1.96,-1.0,0.13,45.45,30.41,-13.96,4
2961717,0.75,0.0,0.63,1.98,-1.06,-0.05,45.52,30.37,-14.02,4
2961729,0.75,0.0,0.63,1.88,-1.14,-0.16,45.52,30.37,-14.02,4
2961741,0.75,-0.0,0.63,1.55,-1.18,-0.03,45.52,30.37,-14.02,4
2961753,0.75,0.0,0.63,1.5,-1.15,0.21,45.52,30.37,-14.02,4
2961764,0.75,0.0,0.63,1.51,-1.11,0.31,45.45,30.41,-13.82,4
2961775,0.75,0.0,0.63,1.51,-1.18,0.1,45.45,30.41,-13.82,4
2961787,0.75,0.0,0.63,1.53,-1.23,-0.0,45.45,30.41,-13.82,4
2961798,0.75,0.0,0.63,1.47,-1.28,-0.03,45.45,30.41,-13.82,4
2961811,0.75,0.0,0.63,1.46,-1.22,0.18,45.4,30.48,-13.57,4
2961823,0.75,0.0,0.63,1.61,-1.17,0.26,45.4,30.48,-13.57,4
2961834,0.75,0.0,0.63,1.83,-1.13,-0.04,45.4,30.48,-13.57,4
2961845,0.75,0.0,0.63,1.95,-1.13,-0.19,45.4,30.48,-13.57,4
2961857,0.75,0.0,0.63,2.06,-1.13,-0.26,45.4,30.48,-13.57,4
2961869,0.75,-0.0,0.63,1.99,-1.14,-0.14,45.4,30.3,-13.68,4
2961880,0.75,0.0,0.63,1.84,-1.12,-0.03,45.4,30.3,-13.68,4
2961890,0.75,0.0,0.63,1.73,-1.11,0.03,45.4,30.3,-13.68,4
2961901,0.75,0.0,0.63,1.74,-1.15,0.04,45.4,30.3,-13.68,4
2961914,0.75,-0.0,0.63,1.83,-1.19,0.05,45.45,30.1,-13.85,4
2961926,0.75,-0.0,0.63,1.79,-1.18,0.01,45.45,30.1,-13.85,4
2961936,0.75,0.0,0.63,1.72,-1.18,-0.03,45.45,30.1,-13.85,4
2961948,0.75,0.0,0.63,1.88,-1.17,-0.08,45.45,30.1,-13.85,4
2961958,0.75,0.0,0.63,1.9,-1.22,-0.24,45.46,30.11,-13.63,4
2961970,0.75,0.0,0.63,1.83,-1.32,-0.4,45.46,30.11,-13.63,4
2961982,0.75,0.0,0.63,1.73,-1.38,-0.37,45.46,30.11,-13.63,4
2961994,0.75,0.0,0.63,1.72,-1.4,-0.18,45.46,30.11,-13.63,4
2962004,0.75,-0.0,0.63,1.71,-1.38,-0.02,45.46,30.11,-13.63,4
2962017,0.75,-0.0,0.63,1.71,-1.19,0.08,45.47,30.12,-13.65,4
2962027,0.74,-0.0,0.63,1.56,-1.1,0.03,45.47,30.12,-13.65,4
2962037,0.75,0.0,0.63,1.34,-1.09,-0.06,45.47,30.12,-13.65,4
2962050,0.75,0.01,0.63,1.25,-1.18,-0.14,45.47,30.12,-13.65,4
2962061,0.75,0.01,0.63,1.35,-1.25,-0.19,45.41,30.1,-13.67,4
2962073,0.75,0.0,0.63,1.48,-1.25,-0.23,45.41,30.1,-13.67,4
2962085,0.75,0.0,0.63,1.67,-1.13,-0.22,45.41,30.1,-13.67,4
2962095,0.75,0.0,0.63,1.78,-1.12,-0.2,45.41,30.1,-13.67,4
2962105,0.75,0.0,0.63,1.87,-1.1,-0.16,45.41,30.1,-13.67,4
2962116,0.75,0.0,0.63,1.95,-1.1,-0.11,45.36,30.08,-13.77,4
2962127,0.75,-0.0,0.63,1.83,-1.15,-0.18,45.36,30.08,-13.77,4
2962138,0.75,-0.0,0.63,1.75,-1.12,-0.18,45.36,30.08,-13.77,4
2962148,0.75,0.0,0.63,1.78,-1.14,-0.12,45.36,30.08,-13.77,4
2962158,0.75,0.0,0.63,1.85,-1.15,-0.09,45.38,30.19,-13.79,4
2962170,0.75,0.0,0.63,1.73,-1.2,0.02,45.38,30.19,-13.79,4
2962182,0.75,0.0,0.63,1.61,-1.15,0.1,45.38,30.19,-13.79,4
2962193,0.75,0.0,0.63,1.59,-1.17,0.13,45.38,30.19,-13.79,4
2962205,0.75,0.0,0.63,1.66,-1.23,-0.03,45.38,30.19,-13.79,4
2962216,0.75,0.0,0.63,1.75,-1.28,-0.15,45.51,30.24,-13.81,4
2962227,0.75,0.0,0.63,1.81,-1.31,-0.25,45.51,30.24,-13.81,4
2962238,0.75,-0.0,0.63,1.82,-1.23,-0.09,45.51,30.24,-13.81,4
2962249,0.75,-0.0,0.63,1.72,-1.2,0.12,45.51,30.24,-13.81,4
2962260,0.75,0.0,0.63,1.69,-1.18,0.21,45.54,30.19,-13.92,4
2962272,0.75,0.0,0.63,1.66,-1.15,0.31,45.54,30.19,-13.92,4
2962283,0.75,0.0,0.63,1.63,-1.13,0.35,45.54,30.19,-13.92,4
2962295,0.75,0.0,0.63,1.61,-1.14,0.4,45.54,30.19,-13.92,4
2962305,0.75,0.0,0.63,1.59,-1.17,0.42,45.54,30.19,-13.92,4
2962317,0.75,0.0,0.63,1.55,-1.17,0.31,45.45,30.14,-13.9,4
2962329,0.75,0.0,0.63,1.45,-1.17,0.24,45.45,30.14,-13.9,4
2962342,0.75,0.0,0.63,1.47,-1.14,0.18,45.45,30.14,-13.9,4
2962354,0.75,0.0,0.63,1.56,-1.13,0.19,45.45,30.14,-13.9,4
2962365,0.75,0.0,0.63,1.57,-1.13,0.12,45.48,30.11,-13.81,4
2962377,0.75,0.0,0.63,1.6,-1.16,0.0,45.48,30.11,-13.81,4
2962388,0.75,0.0,0.63,1.61,-1.18,0.02,45.48,30.11,-13.81,4
2962401,0.75,-0.0,0.63,1.54,-1.14,0.02,45.48,30.11,-13.81,4
2962413,0.75,0.0,0.63,1.46,-1.08,-0.0,45.51,30.08,-13.74,4
2962425,0.75,0.0,0.63,1.51,-1.04,0.01,45.51,30.08,-13.74,4
2962437,0.75,0.0,0.63,1.75,-1.08,-0.25,45.51,30.08,-13.74,4
2962447,0.75,0.0,0.63,1.86,-1.11,-0.32,45.51,30.08,-13.74,4
2962457,0.75,-0.0,0.63,1.9,-1.11,-0.29,45.49,30.04,-13.71,4
2962468,0.75,-0.0,0.63,1.77,-1.1,-0.17,45.49,30.04,-13.71,4
2962480,0.75,0.0,0.63,1.26,-1.08,0.25,45.49,30.04,-13.71,4
2962491,0.75,0.0,0.63,1.14,-1.15,0.35,45.49,30.04,-13.71,4
2962502,0.75,0.0,0.63,1.2,-1.19,0.32,45.49,30.04,-13.71,4
2962515,0.75,0.0,0.63,1.54,-1.29,0.02,45.48,29.97,-13.69,4
2962527,0.75,0.0,0.63,1.63,-1.26,-0.1,45.48,29.97,-13.69,4
2962537,0.75,0.0,0.63,1.64,-1.18,-0.12,45.48,29.97,-13.69,4
2962549,0.75,0.0,0.63,1.72,-1.19,-0.03,45.48,29.97,-13.69,4
2962560,0.75,0.0,0.63,1.8,-1.21,-0.07,45.61,29.96,-13.69,4
2962570,0.75,0.0,0.63,1.84,-1.24,-0.08,45.61,29.96,-13.69,4
2962580,0.75,0.0,0.63,1.91,-1.23,-0.13,45.61,29.96,-13.69,4
2962592,0.75,0.0,0.63,2.0,-1.26,-0.31,45.61,29.96,-13.69,4
2962603,0.75,-0.0,0.63,1.95,-1.26,-0.27,45.61,29.96,-13.69,4
2962614,0.75,-0.0,0.63,1.9,-1.23,-0.11,45.7,30.0,-13.83,4
2962626,0.75,0.0,0.63,1.74,-1.11,0.19,45.7,30.0,-13.83,4
2962638,0.75,0.0,0.63,1.72,-1.12,0.16,45.7,30.0,-13.83,4
2962648,0.75,0.0,0.63,1.81,-1.09,0.06,45.7,30.0,-13.83,4
2962660,0.75,0.0,0.63,1.97,-1.16,-0.06,45.71,29.95,-13.75,4
2962672,0.75,-0.0,0.63,2.01,-1.17,-0.05,45.71,29.95,-13.75,4
2962686,0.75,-0.0,0.63,1.74,-1.2,0.02,45.71,29.95,-13.75,4
2962696,0.75,-0.0,0.63,1.57,-1.22,0.2,45.71,29.95,-13.75,4
2962706,0.75,-0.0,0.63,1.4,-1.22,0.32,45.71,29.95,-13.75,4
2962717,0.75,0.0,0.63,1.32,-1.25,0.34,45.6,29.94,-14.05,4
2962729,0.75,0.0,0.63,1.39,-1.19,0.29,45.6,29.94,-14.05,4
2962740,0.75,0.0,0.63,1.47,-1.15,0.27,45.6,29.94,-14.05,4
2962751,0.75,0.0,0.63,1.63,-1.11,0.25,45.6,29.94,-14.05,4
2962764,0.75,0.0,0.63,1.7,-1.12,0.04,45.47,30.01,-14.06,4
2962776,0.75,0.0,0.63,1.66,-1.13,-0.08,45.47,30.01,-14.06,4
2962789,0.75,0.0,0.63,1.59,-1.21,-0.18,45.47,30.01,-14.06,4
2962800,0.75,0.0,0.63,1.61,-1.18,-0.07,45.47,30.01,-14.06,4
2962810,0.75,0.0,0.63,1.7,-1.11,-0.0,45.53,30.08,-13.97,4
2962824,0.75,-0.0,0.63,1.83,-1.04,0.02,45.53,30.08,-13.97,4
2962836,0.75,-0.0,0.63,1.82,-1.04,0.05,45.53,30.08,-13.97,4
2962846,0.75,-0.0,0.63,1.74,-1.08,0.12,45.53,30.08,-13.97,4
2962859,0.75,0.0,0.63,1.66,-1.13,0.26,45.53,30.04,-14.01,4
2962870,0.75,0.0,0.63,1.67,-1.16,0.16,45.53,30.04,-14.01,4
2962884,0.75,0.0,0.63,1.77,-1.14,-0.03,45.53,30.04,-14.01,4
2962895,0.75,0.0,0.63,1.82,-1.16,0.0,45.53,30.04,-14.01,4
2962909,0.75,0.0,0.63,1.8,-1.19,0.15,45.51,30.1,-13.8,4
2962920,0.75,0.0,0.63,1.86,-1.2,0.19,45.51,30.1,-13.8,4
2962931,0.75,0.0,0.63,1.82,-1.18,0.12,45.51,30.1,-13.8,4
2962943,0.75,0.0,0.63,1.71,-1.15,0.17,45.51,30.1,-13.8,4
2962955,0.75,0.0,0.63,1.71,-1.18,0.15,45.51,30.1,-13.8,4
2962966,0.75,0.0,0.63,1.64,-1.22,0.11,45.48,30.12,-13.67,4
2962978,0.75,0.0,0.63,1.57,-1.24,0.09,45.48,30.12,-13.67,4
2962989,0.75,0.0,0.63,1.62,-1.29,0.03,45.48,30.12,-13.67,4
2963001,0.75,0.0,0.63,1.74,-1.24,0.01,45.48,30.12,-13.67,4
2963014,0.75,0.0,0.63,1.9,-1.12,-0.1,45.5,30.12,-13.66,4
2963025,0.75,0.0,0.63,1.88,-1.1,-0.17,45.5,30.12,-13.66,4
2963039,0.75,-0.0,0.63,1.8,-1.14,-0.12,45.5,30.12,-13.66,4
2963049,0.75,0.0,0.63,1.76,-1.1,-0.02,45.5,30.12,-13.66,4
2963060,0.75,0.0,0.63,1.75,-1.07,0.03,45.47,30.17,-13.6,4
2963073,0.75,0.0,0.63,1.66,-1.08,0.1,45.47,30.17,-13.6,4
2963085,0.75,0.0,0.63,1.69,-1.06,0.05,45.47,30.17,-13.6,4
2963095,0.75,0.0,0.63,1.74,-1.07,-0.03,45.47,30.17,-13.6,4
2963108,0.75,0.0,0.63,1.84,-1.02,-0.05,45.57,30.22,-13.7,4
2963119,0.75,0.0,0.63,1.88,-1.07,-0.09,45.57,30.22,-13.7,4
2963133,0.75,0.0,0.63,1.82,-1.13,-0.21,45.57,30.22,-13.7,4
2963143,0.75,0.0,0.63,1.77,-1.15,-0.22,45.57,30.22,-13.7,4
2963153,0.75,0.0,0.63,1.76,-1.15,-0.13,45.57,30.22,-13.7,4
2963164,0.75,0.0,0.63,1.84,-1.14,-0.06,45.62,30.25,-13.86,4
2963176,0.75,-0.0,0.63,1.85,-1.15,-0.12,45.62,30.25,-13.86,4
2963186,0.75,-0.0,0.63,1.81,-1.17,-0.05,45.62,30.25,-13.86,4
2963196,0.75,-0.0,0.63,1.7,-1.2,0.08,45.62,30.25,-13.86,4
2963207,0.75,-0.0,0.63,1.57,-1.26,0.23,45.61,30.19,-13.85,4
2963219,0.75,0.0,0.63,1.43,-1.28,0.37,45.61,30.19,-13.85,4
2963230,0.75,0.0,0.63,1.45,-1.27,0.29,45.61,30.19,-13.85,4
2963243,0.75,0.0,0.63,1.55,-1.28,0.14,45.61,30.19,-13.85,4
2963254,0.75,0.0,0.63,1.61,-1.28,0.02,45.61,30.19,-13.85,4
2963264,0.75,-0.0,0.63,1.58,-1.32,-0.02,45.55,30.22,-13.73,4
2963277,0.75,-0.0,0.63,1.53,-1.21,0.07,45.55,30.22,-13.73,4
2963288,0.75,0.0,0.63,1.53,-1.18,0.15,45.55,30.22,-13.73,4
2963300,0.75,0.0,0.63,1.61,-1.16,0.14,45.55,30.22,-13.73,4
2963313,0.75,0.0,0.63,1.83,-1.14,-0.01,45.56,30.22,-13.76,4
2963323,0.75,0.0,0.63,1.84,-1.13,-0.06,45.56,30.22,-13.76,4
2963333,0.75,0.0,0.63,1.83,-1.11,-0.06,45.56,30.22,-13.76,4
2963343,0.75,-0.0,0.63,1.88,-1.09,0.01,45.56,30.22,-13.76,4
2963353,0.75,-0.0,0.63,1.84,-1.08,0.1,45.56,30.22,-13.76,4
2963366,0.75,0.0,0.63,1.85,-1.06,0.21,45.63,30.26,-13.77,4
2963377,0.75,-0.0,0.63,1.8,-1.04,0.2,45.63,30.26,-13.77,4
2963391,0.75,-0.0,0.63,1.69,-1.12,0.17,45.63,30.26,-13.77,4
2963401,0.75,0.0,0.63,1.68,-1.13,0.15,45.63,30.26,-13.77,4
2963411,0.75,0.0,0.63,1.72,-1.12,0.14,45.56,30.27,-14.06,4
2963425,0.75,0.0,0.63,1.9,-1.06,0.04,45.56,30.27,-14.06,4
2963437,0.75,0.0,0.63,1.95,-1.03,-0.05,45.56,30.27,-14.06,4
2963450,0.75,0.0,0.63,1.83,-0.96,-0.03,45.56,30.27,-14.06,4
2963461,0.75,0.0,0.63,1.77,-0.97,0.05,45.51,30.26,-13.76,4
2963473,0.75,0.0,0.63,1.75,-0.98,-0.02,45.51,30.26,-13.76,4
2963485,0.75,0.01,0.63,1.77,-1.0,-0.49,45.51,30.26,-13.76,4
2963495,0.75,0.0,0.63,1.88,-1.09,-0.73,45.51,30.26,-13.76,4
2963506,0.75,0.0,0.63,2.0,-1.13,-0.88,45.52,30.34,-13.75,4
2963516,0.75,-0.0,0.63,2.03,-1.14,-0.82,45.52,30.34,-13.75,4
2963528,0.75,-0.01,0.63,1.84,-1.07,-0.27,45.52,30.34,-13.75,4
2963538,0.75,-0.0,0.63,1.66,-1.06,0.06,45.52,30.34,-13.75,4
2963548,0.75,-0.0,0.63,1.5,-1.07,0.3,45.52,30.34,-13.75,4
2963559,0.75,-0.0,0.63,1.41,-1.09,0.41,45.57,30.39,-14.05,4
2963571,0.75,-0.0,0.63,1.37,-1.11,0.37,45.57,30.39,-14.05,4
2963582,0.75,0.0,0.63,1.35,-1.09,0.32,45.57,30.39,-14.05,4
2963595,0.75,0.0,0.63,1.37,-1.09,0.23,45.57,30.39,-14.05,4
2963606,0.75,0.0,0.63,1.38,-1.08,0.25,45.6,30.33,-14.2,4
2963618,0.75,0.0,0.63,1.41,-1.1,0.22,45.6,30.33,-14.2,4
2963629,0.75,0.0,0.63,1.54,-1.13,0.05,45.6,30.33,-14.2,4
2963640,0.75,0.0,0.63,1.72,-1.14,0.08,45.6,30.33,-14.2,4
2963650,0.75,-0.0,0.63,1.76,-1.14,0.16,45.6,30.33,-14.2,4
2963661,0.75,-0.0,0.63,1.74,-1.13,0.19,45.51,30.31,-14.19,4
2963672,0.75,-0.0,0.63,1.53,-1.15,0.36,45.51,30.31,-14.19,4
2963683,0.75,0.0,0.63,1.41,-1.14,0.57,45.51,30.31,-14.19,4
2963693,0.75,0.0,0.63,1.4,-1.17,0.66,45.51,30.31,-14.19,4
2963704,0.75,0.0,0.63,1.47,-1.21,0.62,45.51,30.31,-14.19,4
2963717,0.75,0.0,0.63,1.58,-1.22,0.36,45.48,30.27,-14.2,4
2963729,0.75,0.0,0.63,1.65,-1.18,0.23,45.48,30.27,-14.2,4
2963739,0.75,0.0,0.63,1.7,-1.15,0.16,45.48,30.27,-14.2,4
2963751,0.75,0.0,0.63,1.64,-1.16,0.12,45.48,30.27,-14.2,4
2963762,0.75,0.0,0.63,1.7,-1.21,0.12,45.41,30.3,-14.1,4
2963773,0.75,0.0,0.63,1.84,-1.24,0.06,45.41,30.3,-14.1,4
2963785,0.75,-0.0,0.63,1.8,-1.28,-0.02,45.41,30.3,-14.1,4
2963797,0.75,-0.0,0.63,1.78,-1.28,0.05,45.41,30.3,-14.1,4
2963808,0.75,-0.0,0.63,1.79,-1.24,0.2,45.46,30.24,-14.11,4
2963820,0.75,0.0,0.63,1.49,-1.13,0.41,45.46,30.24,-14.11,4
2963831,0.75,0.0,0.63,1.39,-1.08,0.42,45.46,30.24,-14.11,4
2963844,0.75,0.0,0.63,1.53,-1.09,0.21,45.46,30.24,-14.11,4
2963856,0.75,0.01,0.63,1.65,-1.13,0.06,45.53,30.13,-14.14,4
2963867,0.75,0.0,0.63,1.8,-1.15,-0.15,45.53,30.13,-14.14,4
2963878,0.75,0.0,0.63,2.06,-1.09,-0.36,45.53,30.13,-14.14,4
2963889,0.75,-0.0,0.63,2.14,-1.12,-0.38,45.53,30.13,-14.14,4
2963901,0.75,-0.0,0.63,2.19,-1.11,-0.33,45.53,30.13,-14.14,4
2963914,0.75,-0.0,0.63,2.01,-1.12,-0.02,45.47,30.05,-14.29,4
2963926,0.75,0.0,0.63,1.94,-1.12,0.08,45.47,30.05,-14.29,4
2963936,0.75,0.0,0.63,1.96,-1.11,0.08,45.47,30.05,-14.29,4
2963947,0.75,0.0,0.63,2.35,-1.11,-0.21,45.47,30.05,-14.29,4
2963959,0.75,0.0,0.63,2.51,-1.08,-0.38,45.45,29.96,-14.4,4
2963970,0.75,-0.0,0.63,2.56,-1.06,-0.52,45.45,29.96,-14.4,4
2963981,0.75,-0.0,0.63,2.31,-1.05,-0.52,45.45,29.96,-14.4,4
2963992,0.75,-0.0,0.63,2.11,-1.08,-0.49,45.45,29.96,-14.4,4
2964005,0.75,0.0,0.63,1.98,-1.12,-0.46,45.52,30.01,-14.6,4
2964017,0.75,0.0,0.63,1.9,-1.23,-0.51,45.52,30.01,-14.6,4
2964027,0.75,-0.0,0.63,1.86,-1.23,-0.5,45.52,30.01,-14.6,4
2964037,0.75,-0.0,0.63,1.84,-1.25,-0.39,45.52,30.01,-14.6,4
2964050,0.75,-0.0,0.63,1.75,-1.3,-0.0,45.52,30.01,-14.6,4
2964062,0.75,-0.0,0.63,1.73,-1.3,0.21,45.46,30.03,-14.45,4
2964072,0.75,-0.0,0.63,1.69,-1.28,0.33,45.46,30.03,-14.45,4
2964082,0.75,-0.0,0.63,1.56,-1.21,0.36,45.46,30.03,-14.45,4
2964093,0.75,-0.0,0.63,1.41,-1.19,0.54,45.46,30.03,-14.45,4
2964105,0.75,0.0,0.63,1.41,-1.16,0.64,45.45,29.97,-14.44,4
2964115,0.75,0.0,0.63,1.43,-1.18,0.56,45.45,29.97,-14.44,4
2964125,0.75,0.0,0.63,1.43,-1.19,0.47,45.45,29.97,-14.44,4
2964136,0.75,0.0,0.63,1.4,-1.17,0.37,45.45,29.97,-14.44,4
2964146,0.75,-0.0,0.63,1.36,-1.17,0.41,45.45,29.97,-14.44,4
2964157,0.75,-0.0,0.63,1.26,-1.23,0.52,45.42,30.01,-14.33,4
2964170,0.75,-0.01,0.63,0.95,-1.08,1.9,45.42,30.01,-14.33,4
2964181,0.75,-0.0,0.63,0.82,-0.86,2.48,45.42,30.01,-14.33,4
2964193,0.75,0.0,0.63,0.63,-0.88,2.32,45.42,30.01,-14.33,4
2964203,0.75,0.0,0.63,0.58,-0.94,2.07,45.42,30.01,-14.33,4
2964216,0.75,0.01,0.63,0.84,-0.97,1.92,45.37,30.06,-14.3,4
2964227,0.75,0.01,0.63,0.95,-0.95,1.67,45.37,30.06,-14.3,4
2964241,0.75,0.01,0.63,1.23,-1.09,1.01,45.37,30.06,-14.3,4
2964251,0.75,0.01,0.63,1.46,-1.15,0.56,45.37,30.06,-14.3,4
2964262,0.75,0.01,0.63,1.67,-1.18,0.23,45.41,30.06,-14.18,4
2964272,0.75,0.0,0.63,1.9,-1.16,0.07,45.41,30.06,-14.18,4
2964283,0.75,-0.0,0.63,1.95,-1.17,-0.0,45.41,30.06,-14.18,4
2964294,0.75,-0.0,0.63,1.75,-1.18,0.12,45.41,30.06,-14.18,4
2964305,0.75,-0.0,0.63,1.55,-1.15,0.33,45.52,29.99,-14.17,4
2964318,0.75,0.01,0.63,1.39,-1.12,0.51,45.52,29.99,-14.17,4
2964330,0.75,0.01,0.63,1.4,-1.08,0.4,45.52,29.99,-14.17,4
2964340,0.75,0.01,0.63,1.49,-1.14,0.3,45.52,29.99,-14.17,4
2964352,0.75,0.01,0.63,1.82,-1.14,0.07,45.52,29.99,-14.17,4
2964363,0.75,0.0,0.63,1.9,-1.14,0.11,45.56,29.95,-14.25,4
2964374,0.75,0.0,0.63,1.99,-1.09,0.21,45.56,29.95,-14.25,4
2964386,0.75,0.0,0.63,1.98,-1.1,0.18,45.56,29.95,-14.25,4
2964398,0.75,0.0,0.63,2.01,-1.2,0.07,45.56,29.95,-14.25,4
2964409,0.75,0.0,0.63,2.01,-1.22,0.0,45.57,29.81,-14.06,4
2964421,0.75,-0.0,0.63,1.76,-1.27,0.09,45.57,29.81,-14.06,4
2964431,0.75,-0.0,0.63,1.44,-1.26,0.29,45.57,29.81,-14.06,4
2964441,0.75,0.0,0.63,1.17,-1.23,0.64,45.57,29.81,-14.06,4
2964451,0.75,0.0,0.63,1.08,-1.16,0.97,45.57,29.81,-14.06,4
2964463,0.75,0.01,0.63,1.23,-1.02,0.99,45.51,29.85,-13.79,4
2964475,0.75,0.01,0.63,1.42,-0.98,0.64,45.51,29.85,-13.79,4
2964485,0.75,0.01,0.63,1.64,-1.0,0.2,45.51,29.85,-13.79,4
2964495,0.75,0.01,0.63,1.85,-1.03,-0.07,45.51,29.85,-13.79,4
2964508,0.75,0.0,0.63,2.0,-1.16,-0.24,45.6,29.88,-13.84,4
2964518,0.75,0.0,0.63,1.89,-1.16,-0.05,45.6,29.88,-13.84,4
2964528,0.75,0.0,0.63,1.65,-1.12,0.2,45.6,29.88,-13.84,4
2964541,0.75,-0.0,0.63,1.46,-1.05,0.75,45.6,29.88,-13.84,4
2964553,0.75,-0.0,0.63,1.33,-0.97,1.26,45.6,29.88,-13.84,4
2964564,0.75,-0.0,0.63,1.25,-0.84,1.79,45.64,30.02,-13.78,4
2964576,0.75,0.01,0.63,1.14,-0.78,1.29,45.64,30.02,-13.78,4
2964587,0.75,0.01,0.63,1.25,-0.93,0.9,45.64,30.02,-13.78,4
2964601,0.75,0.01,0.63,1.45,-1.06,0.63,45.64,30.02,-13.78,4
2964611,0.75,0.01,0.63,1.49,-1.03,0.71,45.57,30.04,-13.95,4
2964623,0.75,0.01,0.63,1.54,-0.92,0.79,45.57,30.04,-13.95,4
2964634,0.75,0.01,0.63,1.42,-1.01,0.45,45.57,30.04,-13.95,4
2964645,0.75,0.01,0.63,1.6,-1.04,0.2,45.57,30.04,-13.95,4
2964656,0.75,0.01,0.63,1.81,-0.97,0.04,45.54,29.96,-14.0,4
2964666,0.75,0.0,0.63,1.96,-0.87,0.02,45.54,29.96,-14.0,4
2964677,0.75,0.0,0.63,1.89,-0.72,0.17,45.54,29.96,-14.0,4
2964687,0.75,0.0,0.63,1.7,-0.78,0.37,45.54,29.96,-14.0,4
2964699,0.75,0.01,0.63,1.53,-0.86,0.6,45.54,29.96,-14.0,4
2964711,0.75,0.01,0.63,1.66,-0.95,0.47,45.52,30.05,-13.94,4
2964722,0.75,0.01,0.63,1.77,-0.99,0.27,45.52,30.05,-13.94,4
2964733,0.75,0.01,0.63,1.88,-1.0,0.08,45.52,30.05,-13.94,4
2964747,0.75,0.01,0.63,1.99,-1.01,-0.07,45.52,30.05,-13.94,4
2964758,0.75,0.01,0.63,1.95,-1.03,-0.04,45.47,30.02,-13.97,4
2964768,0.75,0.01,0.63,1.86,-1.02,-0.01,45.47,30.02,-13.97,4
2964778,0.75,0.01,0.63,1.77,-0.98,-0.02,45.47,30.02,-13.97,4
2964790,0.75,0.0,0.63,1.71,-1.0,0.03,45.47,30.02,-13.97,4
2964800,0.75,0.0,0.63,1.67,-1.04,0.15,45.47,30.02,-13.97,4
2964810,0.75,0.0,0.63,1.66,-1.05,0.3,45.44,30.02,-13.63,4
2964824,0.75,0.0,0.63,1.75,-0.98,0.42,45.44,30.02,-13.63,4
2964836,0.75,0.0,0.63,1.78,-0.95,0.34,45.44,30.02,-13.63,4
2964846,0.75,0.01,0.63,1.78,-0.89,0.32,45.44,30.02,-13.63,4
2964859,0.75,0.01,0.63,1.74,-0.89,0.29,45.39,29.89,-13.81,4
2964870,0.75,0.01,0.63,1.69,-0.91,0.17,45.39,29.89,-13.81,4
2964883,0.75,0.01,0.63,1.7,-0.94,0.05,45.39,29.89,-13.81,4
2964894,0.75,0.01,0.63,1.69,-0.99,-0.03,45.39,29.89,-13.81,4
2964905,0.75,0.01,0.63,1.67,-0.97,-0.07,45.39,29.98,-13.76,4
2964915,0.75,0.01,0.63,1.7,-0.95,-0.0,45.39,29.98,-13.76,4
2964926,0.75,0.01,0.63,1.79,-0.85,0.13,45.39,29.98,-13.76,4
2964937,0.75,0.01,0.63,1.78,-0.83,0.23,45.39,29.98,-13.76,4
2964947,0.75,0.01,0.63,1.81,-0.85,0.29,45.39,29.98,-13.76,4
2964958,0.75,0.01,0.63,1.84,-0.91,0.21,45.38,30.03,-13.7,4
2964968,0.75,0.01,0.63,1.84,-1.09,0.0,45.38,30.03,-13.7,4
2964979,0.75,0.01,0.63,1.87,-1.12,-0.04,45.38,30.03,-13.7,4
2964991,0.75,0.0,0.63,1.84,-1.14,-0.02,45.38,30.03,-13.7,4
2965006,0.75,0.01,0.63,1.7,-1.2,0.17,45.42,30.01,-13.75,4
2965016,0.75,0.01,0.63,1.7,-1.25,0.13,45.42,30.01,-13.75,4
2965027,0.75,0.01,0.63,1.69,-1.25,0.01,45.42,30.01,-13.75,4
2965039,0.75,0.01,0.63,1.73,-1.24,-0.02,45.42,30.01,-13.75,4
2965051,0.75,0.01,0.63,1.74,-1.23,0.11,45.42,30.01,-13.75,4
2965062,0.75,0.01,0.63,1.7,-1.16,0.26,45.38,30.06,-13.8,4
2965074,0.75,0.01,0.63,1.65,-1.07,0.24,45.38,30.06,-13.8,4
2965084,0.75,0.01,0.63,1.72,-1.06,0.2,45.38,30.06,-13.8,4
2965095,0.75,0.01,0.63,1.77,-1.07,0.15,45.38,30.06,-13.8,4
2965108,0.75,0.01,0.63,1.84,-1.16,-0.01,45.3,30.09,-13.9,4
2965120,0.75,0.01,0.63,1.84,-1.24,-0.05,45.3,30.09,-13.9,4
2965130,0.75,0.0,0.63,1.69,-1.24,-0.04,45.3,30.09,-13.9,4
2965141,0.75,0.01,0.63,1.67,-1.29,0.06,45.3,30.09,-13.9,4
2965151,0.75,0.01,0.63,1.66,-1.3,0.07,45.3,30.09,-13.9,4
2965162,0.75,0.01,0.63,1.69,-1.32,0.12,45.37,30.11,-14.05,4
2965176,0.75,0.0,0.63,1.56,-1.25,0.2,45.37,30.11,-14.05,4
2965188,0.75,0.0,0.63,1.41,-1.26,0.33,45.37,30.11,-14.05,4
2965199,0.75,0.01,0.63,1.28,-1.26,0.51,45.37,30.11,-14.05,4
2965212,0.75,0.01,0.63,1.29,-1.27,0.52,45.27,30.07,-14.04,4
2965222,0.75,0.01,0.63,1.44,-1.23,0.31,45.27,30.07,-14.04,4
2965232,0.75,0.01,0.63,1.66,-1.18,0.03,45.27,30.07,-14.04,4
2965242,0.75,0.01,0.63,1.83,-1.23,-0.21,45.27,30.07,-14.04,4
2965255,0.75,0.0,0.63,1.9,-1.29,-0.24,45.29,30.05,-13.92,4
2965266,0.75,0.0,0.63,1.79,-1.24,-0.04,45.29,30.05,-13.92,4
2965280,0.75,0.01,0.63,1.51,-1.16,0.42,45.29,30.05,-13.92,4
2965290,0.75,0.01,0.63,1.54,-1.16,0.41,45.29,30.05,-13.92,4
2965300,0.75,0.01,0.63,1.62,-1.17,0.25,45.29,30.05,-13.92,4
2965310,0.75,0.01,0.63,1.72,-1.14,0.13,45.26,29.96,-14.03,4
2965322,0.75,0.01,0.63,1.84,-1.15,-0.03,45.26,29.96,-14.03,4
2965334,0.75,0.01,0.63,1.74,-1.16,0.03,45.26,29.96,-14.03,4
2965344,0.75,0.01,0.63,1.57,-1.22,0.16,45.26,29.96,-14.03,4
2965357,0.75,0.01,0.63,1.48,-1.27,0.36,45.18,29.94,-13.93,4
2965367,0.75,0.01,0.63,1.46,-1.27,0.47,45.18,29.94,-13.93,4
2965378,0.75,0.01,0.63,1.43,-1.19,0.54,45.18,29.94,-13.93,4
2965389,0.75,0.01,0.63,1.51,-1.17,0.42,45.18,29.94,-13.93,4
2965400,0.75,0.01,0.63,1.51,-1.18,0.33,45.18,29.94,-13.93,4
2965411,0.75,0.01,0.63,1.56,-1.22,0.21,45.22,29.99,-13.97,4
2965424,0.75,0.01,0.63,1.56,-1.25,-0.01,45.22,29.99,-13.97,4
2965435,0.75,0.01,0.63,1.5,-1.25,0.05,45.22,29.99,-13.97,4
