time,acc_x,acc_y,acc_z,gyro_x,gyro_y,gyro_z,mag_x,mag_y,mag_z,label
3496216,0.6,0.11,-0.84,-36.98,-32.69,-10.22,32.84,22.71,36.71,4
3496227,0.61,0.11,-0.81,-31.76,-36.24,-12.33,32.84,22.71,36.71,4
3496239,0.61,0.11,-0.8,-27.4,-38.04,-14.15,32.84,22.71,36.71,4
3496251,0.62,0.11,-0.78,-19.89,-35.43,-15.05,32.9,23.65,36.19,4
3496263,0.63,0.11,-0.77,-15.31,-32.14,-14.71,32.9,23.65,36.19,4
3496273,0.64,0.1,-0.77,-11.04,-28.29,-14.12,32.9,23.65,36.19,4
3496283,0.66,0.08,-0.77,-8.16,-24.6,-13.16,32.9,23.65,36.19,4
3496295,0.67,0.07,-0.76,-8.04,-21.84,-10.26,32.9,23.65,36.19,4
3496306,0.67,0.07,-0.76,-8.47,-21.58,-8.87,33.19,24.54,35.68,4
3496316,0.68,0.07,-0.76,-7.98,-20.7,-7.68,33.19,24.54,35.68,4
3496326,0.68,0.07,-0.75,-6.56,-19.35,-6.6,33.19,24.54,35.68,4
3496338,0.69,0.06,-0.75,-1.68,-15.82,-4.51,33.19,24.54,35.68,4
3496349,0.69,0.06,-0.76,0.55,-14.86,-3.37,33.52,25.28,35.17,4
3496362,0.68,0.06,-0.77,4.35,-17.32,-2.01,33.52,25.28,35.17,4
3496373,0.67,0.06,-0.77,6.77,-19.33,-2.31,33.52,25.28,35.17,4
3496383,0.68,0.07,-0.76,9.42,-20.85,-2.88,33.52,25.28,35.17,4
3496393,0.67,0.08,-0.75,11.99,-21.54,-3.13,33.52,25.28,35.17,4
3496405,0.68,0.08,-0.75,16.39,-22.15,-3.99,33.77,25.84,34.86,4
3496416,0.69,0.07,-0.73,18.15,-23.11,-5.17,33.77,25.84,34.86,4
3496426,0.69,0.07,-0.72,19.65,-23.8,-6.47,33.77,25.84,34.86,4
3496436,0.7,0.07,-0.7,21.03,-23.83,-7.49,33.77,25.84,34.86,4
3496446,0.71,0.07,-0.68,22.04,-22.87,-8.07,33.77,25.84,34.86,4
3496459,0.73,0.07,-0.66,22.59,-18.44,-7.45,34.23,26.22,34.46,4
3496469,0.73,0.08,-0.67,21.24,-16.06,-6.11,34.23,26.22,34.46,4
3496479,0.72,0.09,-0.68,20.23,-14.67,-4.47,34.23,26.22,34.46,4
3496489,0.71,0.08,-0.69,20.56,-14.26,-3.4,34.23,26.22,34.46,4
3496502,0.71,0.08,-0.7,23.67,-15.79,-3.2,34.68,26.38,34.08,4
3496512,0.71,0.09,-0.7,25.27,-17.09,-3.14,34.68,26.38,34.08,4
3496522,0.71,0.1,-0.7,26.28,-18.07,-3.27,34.68,26.38,34.08,4
3496532,0.71,0.11,-0.69,26.62,-18.81,-3.86,34.68,26.38,34.08,4
3496544,0.72,0.13,-0.68,26.45,-19.58,-6.97,34.68,26.38,34.08,4
3496554,0.73,0.13,-0.66,26.12,-18.99,-8.92,35.1,26.42,34.31,4
3496565,0.73,0.12,-0.65,25.29,-17.58,-10.36,35.1,26.42,34.31,4
3496575,0.74,0.12,-0.64,23.05,-15.63,-10.98,35.1,26.42,34.31,4
3496587,0.75,0.09,-0.64,16.75,-12.09,-10.71,35.1,26.42,34.31,4
3496597,0.75,0.09,-0.64,14.53,-10.64,-9.94,35.1,26.42,34.31,4
3496608,0.76,0.08,-0.65,13.53,-9.29,-8.59,35.37,26.2,34.28,4
3496618,0.75,0.08,-0.65,13.45,-8.4,-6.95,35.37,26.2,34.28,4
3496630,0.74,0.09,-0.66,13.42,-8.48,-4.72,35.37,26.2,34.28,4
3496640,0.74,0.09,-0.66,13.64,-9.19,-4.27,35.37,26.2,34.28,4
3496651,0.74,0.09,-0.65,13.78,-10.13,-4.26,35.7,26.09,34.0,4
3496661,0.74,0.1,-0.65,13.59,-10.95,-4.77,35.7,26.09,34.0,4
3496673,0.74,0.1,-0.64,10.42,-11.8,-5.68,35.7,26.09,34.0,4
3496683,0.75,0.1,-0.64,7.15,-12.03,-5.58,35.7,26.09,34.0,4
3496693,0.75,0.1,-0.65,4.45,-12.4,-5.55,35.7,26.09,34.0,4
3496704,0.75,0.1,-0.66,4.06,-12.91,-5.77,35.99,25.95,33.68,4
3496715,0.75,0.13,-0.7,15.99,-10.08,-4.76,35.99,25.95,33.68,4
3496726,0.72,0.15,-0.69,24.68,-7.97,-4.22,35.99,25.95,33.68,4
3496736,0.7,0.16,-0.67,31.65,-5.7,-4.11,35.99,25.95,33.68,4
3496746,0.7,0.13,-0.65,35.94,-2.64,-5.1,35.99,25.95,33.68,4
3496759,0.72,0.08,-0.63,39.71,-1.1,-9.37,36.21,25.83,33.54,4
3496769,0.73,0.07,-0.62,40.24,-5.49,-11.76,36.21,25.83,33.54,4
3496779,0.74,0.07,-0.61,39.51,-11.6,-14.32,36.21,25.83,33.54,4
3496789,0.77,0.08,-0.62,36.96,-17.09,-15.97,36.21,25.83,33.54,4
3496802,0.83,0.11,-0.62,31.93,-16.65,-14.16,36.28,25.48,33.49,4
3496812,0.83,0.12,-0.61,32.41,-13.3,-11.08,36.28,25.48,33.49,4
3496822,0.83,0.13,-0.59,32.68,-8.88,-8.45,36.28,25.48,33.49,4
3496832,0.82,0.15,-0.56,32.31,-3.51,-7.15,36.28,25.48,33.49,4
3496843,0.82,0.17,-0.53,32.63,9.76,-6.47,36.28,25.48,33.49,4
3496855,0.78,0.15,-0.5,33.52,16.33,-6.22,36.51,24.95,33.48,4
3496865,0.75,0.14,-0.51,34.54,20.39,-4.96,36.51,24.95,33.48,4
3496875,0.73,0.14,-0.6,36.53,22.02,-2.71,36.51,24.95,33.48,4
3496886,0.7,0.12,-0.64,50.45,28.93,2.52,36.51,24.95,33.48,4
3496896,0.68,0.12,-0.71,60.83,32.53,5.4,36.51,24.95,33.48,4
3496907,0.69,0.11,-0.72,73.75,36.29,7.41,36.51,24.42,33.77,4
3496919,0.72,0.11,-0.73,85.02,40.25,8.68,36.51,24.42,33.77,4
3496930,0.81,0.15,-0.74,80.15,53.24,14.95,36.51,24.42,33.77,4
3496942,0.82,0.19,-0.72,67.57,58.46,20.79,36.51,24.42,33.77,4
3496953,0.8,0.24,-0.7,54.1,62.34,24.83,36.27,23.25,34.31,4
3496964,0.75,0.36,-0.66,32.39,64.21,27.3,36.27,23.25,34.31,4
3496976,0.75,0.38,-0.66,27.79,61.06,25.41,36.27,23.25,34.31,4
3496986,0.74,0.37,-0.67,25.94,53.74,21.57,36.27,23.25,34.31,4
3497000,0.7,0.33,-0.67,21.19,32.13,11.46,35.56,22.07,35.17,4
3497010,0.67,0.31,-0.67,19.8,22.16,6.08,35.56,22.07,35.17,4
3497020,0.65,0.29,-0.69,18.88,14.02,1.76,35.56,22.07,35.17,4
3497033,0.61,0.24,-0.75,22.44,5.21,-1.4,35.56,22.07,35.17,4
3497044,0.6,0.22,-0.75,28.96,2.39,-1.7,35.56,22.07,35.17,4
3497055,0.6,0.19,-0.73,36.37,-0.63,-1.97,34.83,20.98,35.83,4
3497067,0.62,0.19,-0.67,44.88,-6.9,0.05,34.83,20.98,35.83,4
3497079,0.64,0.2,-0.63,43.19,-7.46,0.6,34.83,20.98,35.83,4
3497090,0.66,0.22,-0.59,38.0,-6.22,1.75,34.83,20.98,35.83,4
3497103,0.72,0.24,-0.56,16.03,1.96,1.53,34.53,19.76,36.19,4
3497115,0.72,0.24,-0.58,0.46,4.86,1.4,34.53,19.76,36.19,4
3497125,0.73,0.23,-0.6,-15.03,5.77,1.11,34.53,19.76,36.19,4
3497137,0.72,0.19,-0.65,-36.58,-1.09,0.88,34.53,19.76,36.19,4
3497148,0.71,0.18,-0.68,-41.5,-6.58,1.63,34.09,18.94,36.69,4
3497158,0.71,0.17,-0.72,-42.58,-11.53,2.78,34.09,18.94,36.69,4
3497168,0.7,0.18,-0.74,-40.32,-16.05,4.53,34.09,18.94,36.69,4
3497180,0.67,0.21,-0.76,-29.5,-20.32,8.63,34.09,18.94,36.69,4
3497190,0.66,0.23,-0.76,-23.25,-19.68,9.33,34.09,18.94,36.69,4
3497201,0.65,0.25,-0.75,-17.9,-17.45,8.43,33.88,18.68,37.07,4
3497211,0.65,0.27,-0.73,-13.28,-15.06,6.58,33.88,18.68,37.07,4
3497223,0.66,0.29,-0.72,-4.78,-11.11,2.43,33.88,18.68,37.07,4
3497233,0.67,0.29,-0.72,-2.43,-9.27,1.06,33.88,18.68,37.07,4
3497243,0.67,0.29,-0.72,-2.15,-8.0,-0.08,33.88,18.68,37.07,4
3497255,0.67,0.28,-0.72,-3.67,-7.51,-2.97,33.87,18.36,37.23,4
3497266,0.68,0.28,-0.71,-3.17,-8.2,-4.55,33.87,18.36,37.23,4
3497277,0.69,0.28,-0.7,-1.8,-8.61,-5.71,33.87,18.36,37.23,4
3497288,0.7,0.27,-0.68,-0.4,-8.08,-6.16,33.87,18.36,37.23,4
3497301,0.71,0.26,-0.67,0.49,-5.63,-4.69,33.86,18.42,37.27,4
3497311,0.71,0.25,-0.67,0.85,-4.55,-3.29,33.86,18.42,37.27,4
3497322,0.7,0.25,-0.67,1.55,-3.54,-2.12,33.86,18.42,37.27,4
3497334,0.7,0.25,-0.68,2.44,-0.98,0.17,33.86,18.42,37.27,4
3497347,0.7,0.25,-0.69,2.79,-0.23,1.63,33.94,18.52,37.18,4
3497360,0.68,0.25,-0.68,5.89,0.3,3.4,33.94,18.52,37.18,4
3497370,0.69,0.26,-0.67,7.55,0.57,3.4,33.94,18.52,37.18,4
3497380,0.69,0.26,-0.67,9.02,0.92,3.49,33.94,18.52,37.18,4
3497390,0.69,0.26,-0.66,10.74,1.76,4.12,33.94,18.52,37.18,4
3497402,0.69,0.26,-0.66,15.14,6.43,6.87,33.9,18.55,37.47,4
3497414,0.69,0.26,-0.67,18.01,9.82,8.51,33.9,18.55,37.47,4
3497424,0.68,0.26,-0.67,20.58,12.67,9.77,33.9,18.55,37.47,4
3497437,0.66,0.27,-0.67,23.83,15.21,12.05,33.9,18.55,37.47,4
3497448,0.66,0.27,-0.67,24.69,14.32,14.22,33.9,18.28,37.54,4
3497458,0.65,0.27,-0.66,25.45,12.96,16.34,33.9,18.28,37.54,4
3497471,0.66,0.28,-0.66,28.32,9.25,21.5,33.9,18.28,37.54,4
3497481,0.65,0.29,-0.66,31.29,6.77,24.82,33.9,18.28,37.54,4
3497491,0.65,0.28,-0.66,35.55,4.29,28.42,33.9,18.28,37.54,4
3497501,0.64,0.28,-0.65,40.54,1.34,31.79,33.65,17.69,37.8,4
3497515,0.62,0.27,-0.63,54.03,-5.22,41.24,33.65,17.69,37.8,4
3497525,0.64,0.28,-0.65,58.62,-8.77,46.99,33.65,17.69,37.8,4
3497536,0.68,0.33,-0.66,54.37,-10.43,49.48,33.65,17.69,37.8,4
3497548,0.72,0.41,-0.67,34.75,-12.85,37.69,33.71,16.69,38.03,4
3497559,0.71,0.43,-0.66,24.78,-12.93,30.47,33.71,16.69,38.03,4
3497571,0.69,0.43,-0.66,16.18,-9.85,23.64,33.71,16.69,38.03,4
3497583,0.69,0.43,-0.67,4.62,-4.22,12.15,33.71,16.69,38.03,4
3497593,0.68,0.43,-0.67,1.87,-4.03,7.86,33.71,16.69,38.03,4
3497604,0.68,0.42,-0.67,0.1,-3.6,4.23,33.89,15.64,38.01,4
3497617,0.68,0.4,-0.65,-1.53,-1.99,-0.59,33.89,15.64,38.01,4
3497629,0.68,0.38,-0.64,-1.43,-0.64,-1.73,33.89,15.64,38.01,4
3497643,0.68,0.38,-0.6,-3.33,5.22,-1.79,33.89,15.64,38.01,4
3497654,0.68,0.37,-0.58,-6.43,9.64,-0.71,33.94,14.97,37.92,4
3497665,0.67,0.36,-0.57,-10.75,14.77,0.96,33.94,14.97,37.92,4
3497677,0.67,0.34,-0.57,-21.99,26.98,4.17,33.94,14.97,37.92,4
3497689,0.68,0.34,-0.6,-28.26,33.14,5.77,33.94,14.97,37.92,4
3497700,0.68,0.34,-0.64,-33.92,37.93,8.78,33.89,14.48,38.09,4
3497712,0.64,0.34,-0.72,-38.5,42.19,17.11,33.89,14.48,38.09,4
3497723,0.61,0.34,-0.75,-36.25,41.95,20.24,33.89,14.48,38.09,4
3497736,0.58,0.34,-0.76,-25.76,37.0,20.76,33.89,14.48,38.09,4
3497748,0.56,0.37,-0.77,-20.48,33.39,18.46,33.37,14.53,38.24,4
3497758,0.56,0.39,-0.76,-16.64,29.98,16.11,33.37,14.53,38.24,4
3497768,0.57,0.4,-0.75,-14.38,28.44,14.2,33.37,14.53,38.24,4
3497778,0.59,0.4,-0.75,-14.57,29.36,11.49,33.37,14.53,38.24,4
3497789,0.6,0.37,-0.75,-15.93,30.54,11.61,33.37,14.53,38.24,4
3497801,0.6,0.36,-0.76,-16.13,32.13,12.55,32.76,14.54,38.28,4
3497813,0.58,0.36,-0.77,-11.14,36.17,15.12,32.76,14.54,38.28,4
3497824,0.55,0.35,-0.77,-7.49,38.6,15.33,32.76,14.54,38.28,4
3497835,0.53,0.35,-0.77,-4.34,39.91,14.67,32.76,14.54,38.28,4
3497846,0.52,0.36,-0.77,-2.27,40.47,13.17,32.02,14.71,38.62,4
3497858,0.51,0.36,-0.8,1.74,40.98,9.21,32.02,14.71,38.62,4
3497868,0.51,0.36,-0.82,4.56,40.51,7.91,32.02,14.71,38.62,4
3497878,0.5,0.36,-0.84,8.67,40.03,7.74,32.02,14.71,38.62,4
3497889,0.48,0.37,-0.85,14.82,39.98,7.59,32.02,14.71,38.62,4
3497902,0.46,0.38,-0.85,30.0,39.22,3.45,31.14,14.65,39.21,4
3497913,0.45,0.39,-0.84,35.88,37.83,-0.19,31.14,14.65,39.21,4
3497927,0.46,0.41,-0.79,39.34,35.25,-8.57,31.14,14.65,39.21,4
3497938,0.48,0.41,-0.77,36.94,34.71,-12.23,31.14,14.65,39.21,4
3497949,0.51,0.41,-0.76,32.35,34.67,-14.36,30.0,14.34,39.59,4
3497961,0.54,0.37,-0.77,22.44,34.79,-10.72,30.0,14.34,39.59,4
3497972,0.54,0.37,-0.77,19.08,34.96,-5.74,30.0,14.34,39.59,4
3497983,0.53,0.37,-0.77,16.54,35.02,-0.18,30.0,14.34,39.59,4
3497993,0.52,0.37,-0.77,10.19,34.98,10.9,30.0,14.34,39.59,4
3498005,0.49,0.38,-0.76,6.18,34.43,16.05,28.84,13.98,40.14,4
3498017,0.47,0.39,-0.77,2.05,33.49,20.27,28.84,13.98,40.14,4
3498028,0.44,0.4,-0.78,-3.83,30.61,24.67,28.84,13.98,40.14,4
3498039,0.38,0.41,-0.8,-4.87,28.61,24.02,28.84,13.98,40.14,4
3498050,0.37,0.42,-0.82,-4.69,25.87,21.46,27.68,13.83,40.56,4
3498060,0.36,0.42,-0.82,-4.04,22.46,17.72,27.68,13.83,40.56,4
3498070,0.36,0.41,-0.83,-2.94,14.21,10.16,27.68,13.83,40.56,4
3498082,0.39,0.4,-0.83,-2.2,10.62,7.51,27.68,13.83,40.56,4
3498093,0.4,0.39,-0.82,-1.16,8.39,6.17,27.68,13.83,40.56,4
3498105,0.41,0.39,-0.82,-0.15,8.23,6.49,26.54,13.64,41.11,4
3498116,0.42,0.4,-0.8,-1.06,9.53,7.36,26.54,13.64,41.11,4
3498127,0.42,0.4,-0.79,-3.17,10.98,8.35,26.54,13.64,41.11,4
3498141,0.42,0.4,-0.79,-10.75,13.25,10.5,26.54,13.64,41.11,4
3498152,0.41,0.4,-0.81,-15.28,13.96,11.95,25.67,13.54,41.43,4
3498163,0.4,0.39,-0.83,-19.39,14.01,13.43,25.67,13.54,41.43,4
3498175,0.37,0.39,-0.86,-24.44,11.38,14.69,25.67,13.54,41.43,4
3498187,0.36,0.39,-0.88,-24.77,8.74,13.98,25.67,13.54,41.43,4
3498198,0.36,0.39,-0.89,-24.02,5.83,12.58,24.74,13.63,41.71,4
3498210,0.36,0.39,-0.89,-21.62,-0.16,9.29,24.74,13.63,41.71,4
3498220,0.36,0.39,-0.89,-19.78,-2.4,7.82,24.74,13.63,41.71,4
3498230,0.36,0.39,-0.89,-17.39,-3.5,6.63,24.74,13.63,41.71,4
3498240,0.36,0.39,-0.88,-14.7,-3.4,5.63,24.74,13.63,41.71,4
3498253,0.36,0.39,-0.87,-10.01,-2.29,3.21,24.07,14.02,42.0,4
3498263,0.36,0.38,-0.86,-9.03,-2.5,1.86,24.07,14.02,42.0,4
3498273,0.37,0.38,-0.85,-9.48,-3.35,0.73,24.07,14.02,42.0,4
3498283,0.37,0.37,-0.85,-10.86,-4.8,0.05,24.07,14.02,42.0,4
3498293,0.38,0.37,-0.86,-12.11,-6.58,-0.19,24.07,14.02,42.0,4
3498306,0.36,0.36,-0.87,-12.14,-9.93,-0.45,23.58,14.14,42.37,4
3498316,0.36,0.36,-0.87,-11.19,-11.44,-0.99,23.58,14.14,42.37,4
3498328,0.36,0.36,-0.87,-8.4,-13.09,-1.99,23.58,14.14,42.37,4
3498339,0.38,0.36,-0.86,-7.44,-14.12,-2.54,23.58,14.14,42.37,4
3498350,0.38,0.35,-0.86,-7.21,-16.28,-3.05,23.28,14.56,42.42,4
3498364,0.39,0.35,-0.86,-9.92,-25.01,-3.8,23.28,14.56,42.42,4
3498376,0.39,0.35,-0.86,-12.19,-30.46,-3.78,23.28,14.56,42.42,4
3498388,0.4,0.34,-0.86,-14.44,-38.94,-4.0,23.28,14.56,42.42,4
3498400,0.41,0.34,-0.85,-14.08,-40.3,-4.32,23.19,14.85,42.65,4
3498411,0.42,0.35,-0.84,-13.48,-39.59,-4.55,23.19,14.85,42.65,4
3498421,0.44,0.35,-0.83,-13.48,-37.81,-4.57,23.19,14.85,42.65,4
3498433,0.45,0.34,-0.82,-16.67,-35.48,-3.89,23.19,14.85,42.65,4
3498445,0.46,0.33,-0.83,-18.12,-34.84,-3.13,23.52,15.21,42.52,4
3498459,0.46,0.32,-0.84,-15.58,-32.31,-1.56,23.52,15.21,42.52,4
3498471,0.45,0.32,-0.84,-12.51,-29.45,-1.0,23.52,15.21,42.52,4
3498484,0.46,0.33,-0.83,-7.29,-22.22,-0.94,23.52,15.21,42.52,4
3498495,0.46,0.32,-0.82,-6.34,-19.49,-1.79,24.2,15.77,42.26,4
3498507,0.47,0.32,-0.83,-6.41,-17.77,-2.15,24.2,15.77,42.26,4
3498519,0.47,0.31,-0.85,-6.25,-15.44,-1.99,24.2,15.77,42.26,4
3498531,0.47,0.31,-0.85,-5.03,-14.99,-1.5,24.2,15.77,42.26,4
3498545,0.47,0.3,-0.85,-1.56,-15.46,-2.19,24.74,16.15,42.06,4
3498557,0.48,0.3,-0.84,0.06,-16.33,-2.35,24.74,16.15,42.06,4
3498571,0.49,0.31,-0.82,0.64,-17.66,-1.58,24.74,16.15,42.06,4
3498581,0.49,0.31,-0.82,-0.28,-18.62,-1.5,24.74,16.15,42.06,4
3498591,0.49,0.31,-0.82,-1.43,-19.81,-2.04,24.74,16.15,42.06,4
3498602,0.49,0.31,-0.82,-2.2,-21.75,-2.48,25.27,16.52,41.69,4
3498614,0.5,0.3,-0.82,-2.03,-24.1,-3.39,25.27,16.52,41.69,4
3498625,0.5,0.3,-0.82,-1.06,-24.25,-3.51,25.27,16.52,41.69,4
3498639,0.52,0.31,-0.81,0.47,-23.82,-2.39,25.27,16.52,41.69,4
3498650,0.52,0.31,-0.8,1.16,-22.32,-1.91,25.97,16.91,41.35,4
3498661,0.52,0.3,-0.8,2.24,-20.37,-1.79,25.97,16.91,41.35,4
3498674,0.52,0.3,-0.79,4.29,-16.12,-1.71,25.97,16.91,41.35,4
3498684,0.52,0.29,-0.79,4.96,-14.95,-1.66,25.97,16.91,41.35,4
3498695,0.53,0.29,-0.78,5.05,-14.37,-1.53,26.47,17.2,41.27,4
3498705,0.53,0.29,-0.78,4.64,-14.16,-1.36,26.47,17.2,41.27,4
3498717,0.53,0.29,-0.77,2.9,-13.06,-1.5,26.47,17.2,41.27,4
3498727,0.53,0.3,-0.77,2.33,-12.3,-1.43,26.47,17.2,41.27,4
3498737,0.53,0.3,-0.77,1.89,-11.34,-1.54,26.47,17.2,41.27,4
3498748,0.53,0.3,-0.78,1.54,-10.13,-1.73,27.2,17.4,40.97,4
3498760,0.54,0.3,-0.78,1.25,-7.7,-1.81,27.2,17.4,40.97,4
3498770,0.54,0.29,-0.79,1.35,-6.81,-1.67,27.2,17.4,40.97,4
3498780,0.54,0.29,-0.79,1.51,-6.26,-1.42,27.2,17.4,40.97,4
3498790,0.55,0.29,-0.79,1.8,-5.92,-1.15,27.2,17.4,40.97,4
3498803,0.55,0.3,-0.79,2.5,-5.23,-0.48,27.74,17.45,40.8,4
3498813,0.55,0.3,-0.79,2.66,-4.74,-0.23,27.74,17.45,40.8,4
3498823,0.55,0.3,-0.79,2.68,-4.31,-0.07,27.74,17.45,40.8,4
3498833,0.54,0.3,-0.79,2.6,-3.99,0.0,27.74,17.45,40.8,4
3498845,0.54,0.31,-0.79,2.09,-3.51,-0.22,28.11,17.44,40.62,4
3498855,0.54,0.31,-0.79,1.76,-3.31,-0.28,28.11,17.44,40.62,4
3498866,0.54,0.3,-0.79,1.63,-3.12,-0.3,28.11,17.44,40.62,4
3498880,0.54,0.3,-0.79,2.22,-2.92,-0.22,28.11,17.44,40.62,4
3498892,0.54,0.3,-0.79,2.74,-2.98,-0.04,28.11,17.44,40.62,4
3498904,0.54,0.3,-0.79,4.06,-3.29,0.08,28.63,17.51,40.54,4
3498915,0.54,0.3,-0.78,4.45,-3.28,-0.05,28.63,17.51,40.54,4
3498925,0.54,0.3,-0.78,4.64,-3.19,-0.24,28.63,17.51,40.54,4
3498935,0.54,0.3,-0.77,4.56,-3.08,-0.51,28.63,17.51,40.54,4
3498947,0.54,0.3,-0.77,3.37,-2.88,-0.99,28.8,17.51,40.27,4
3498958,0.55,0.3,-0.78,2.49,-2.81,-0.8,28.8,17.51,40.27,4
3498968,0.55,0.3,-0.79,2.04,-2.59,-0.27,28.8,17.51,40.27,4
3498978,0.54,0.3,-0.79,2.41,-2.3,0.14,28.8,17.51,40.27,4
3498988,0.54,0.3,-0.79,3.38,-2.28,0.05,28.8,17.51,40.27,4
3499001,0.55,0.31,-0.78,4.57,-2.7,-0.64,28.96,17.66,39.92,4
3499011,0.55,0.31,-0.78,4.32,-2.63,-0.64,28.96,17.66,39.92,4
3499021,0.55,0.31,-0.78,3.89,-2.17,-0.57,28.96,17.66,39.92,4
3499031,0.55,0.31,-0.77,3.57,-1.7,-0.48,28.96,17.66,39.92,4
3499044,0.55,0.31,-0.77,2.62,-1.08,-0.74,29.22,17.62,39.71,4
3499054,0.55,0.31,-0.78,1.68,-1.09,-0.96,29.22,17.62,39.71,4
3499064,0.56,0.3,-0.79,0.95,-1.31,-0.81,29.22,17.62,39.71,4
3499074,0.55,0.3,-0.8,0.99,-1.33,-0.24,29.22,17.62,39.71,4
3499085,0.55,0.3,-0.8,3.33,-0.81,0.68,29.22,17.62,39.71,4
3499096,0.54,0.3,-0.79,4.58,-0.98,0.65,29.32,17.69,39.72,4
3499108,0.54,0.31,-0.78,5.23,-1.36,0.3,29.32,17.69,39.72,4
3499120,0.55,0.3,-0.77,4.49,-2.02,-0.59,29.32,17.69,39.72,4
3499131,0.56,0.3,-0.77,3.36,-2.17,-0.92,29.32,17.69,39.72,4
3499145,0.56,0.3,-0.77,1.38,-1.9,-0.2,29.39,17.66,40.04,4
3499156,0.56,0.3,-0.78,1.35,-1.34,0.36,29.39,17.66,40.04,4
3499168,0.56,0.3,-0.78,2.05,-0.95,0.48,29.39,17.66,40.04,4
3499180,0.55,0.3,-0.77,3.31,-0.92,-0.13,29.39,17.66,40.04,4
3499192,0.55,0.31,-0.76,2.98,-0.91,-0.36,29.39,17.66,40.04,4
3499203,0.55,0.3,-0.76,2.15,-0.84,-0.47,29.45,17.7,40.1,4
3499215,0.55,0.31,-0.77,1.15,-0.32,-0.56,29.45,17.7,40.1,4
3499225,0.55,0.31,-0.78,1.48,0.59,-0.44,29.45,17.7,40.1,4
3499235,0.55,0.3,-0.79,2.14,1.82,-0.1,29.45,17.7,40.1,4
3499246,0.55,0.3,-0.79,2.74,2.75,0.35,29.48,17.73,40.15,4
3499257,0.55,0.31,-0.79,4.04,1.99,0.59,29.48,17.73,40.15,4
3499269,0.55,0.31,-0.79,4.45,1.42,0.7,29.48,17.73,40.15,4
3499281,0.55,0.32,-0.78,4.39,2.02,1.38,29.48,17.73,40.15,4
3499292,0.55,0.32,-0.78,3.99,2.36,1.66,29.48,17.73,40.15,4
3499303,0.54,0.32,-0.78,3.41,2.21,1.61,29.44,17.64,39.91,4
3499313,0.54,0.32,-0.78,2.67,1.63,1.23,29.44,17.64,39.91,4
3499326,0.54,0.32,-0.79,1.26,0.28,0.39,29.44,17.64,39.91,4
3499336,0.54,0.32,-0.79,1.13,0.23,0.29,29.44,17.64,39.91,4
3499347,0.54,0.31,-0.79,1.38,0.38,0.24,29.35,17.63,39.72,4
3499360,0.54,0.31,-0.79,1.79,-0.23,-0.22,29.35,17.63,39.72,4
3499372,0.54,0.31,-0.79,1.47,-1.13,-0.6,29.35,17.63,39.72,4
3499382,0.54,0.31,-0.79,0.97,-2.09,-0.94,29.35,17.63,39.72,4
3499392,0.55,0.31,-0.79,0.83,-2.44,-1.06,29.35,17.63,39.72,4
3499405,0.55,0.31,-0.78,1.82,-0.98,-0.62,29.44,17.52,39.68,4
3499415,0.54,0.31,-0.78,2.43,-0.33,-0.5,29.44,17.52,39.68,4
3499425,0.54,0.31,-0.78,2.7,-0.21,-0.63,29.44,17.52,39.68,4
3499438,0.54,0.31,-0.78,1.32,-0.7,-0.96,29.44,17.52,39.68,4
3499449,0.54,0.31,-0.79,0.4,-1.24,-0.83,29.41,17.52,39.68,4
3499462,0.54,0.3,-0.79,1.15,-1.09,-0.39,29.41,17.52,39.68,4
3499473,0.54,0.3,-0.79,2.25,-0.7,-0.2,29.41,17.52,39.68,4
3499483,0.54,0.31,-0.78,2.94,-0.67,-0.11,29.41,17.52,39.68,4
3499494,0.55,0.31,-0.78,2.86,-0.94,0.02,29.42,17.64,39.47,4
3499505,0.55,0.31,-0.78,1.69,-1.46,0.66,29.42,17.64,39.47,4
3499516,0.54,0.31,-0.79,1.62,-1.52,0.8,29.42,17.64,39.47,4
3499526,0.54,0.31,-0.79,1.91,-1.64,0.7,29.42,17.64,39.47,4
3499536,0.54,0.31,-0.78,2.03,-1.86,0.48,29.42,17.64,39.47,4
3499546,0.54,0.31,-0.78,1.7,-2.11,0.21,29.4,17.69,39.66,4
3499558,0.55,0.31,-0.78,0.27,-2.27,-0.05,29.4,17.69,39.66,4
3499570,0.55,0.31,-0.79,0.13,-2.08,0.3,29.4,17.69,39.66,4
3499583,0.54,0.31,-0.79,2.22,-1.62,0.79,29.4,17.69,39.66,4
3499594,0.54,0.31,-0.78,3.46,-1.74,0.67,29.37,17.77,39.67,4
3499606,0.54,0.31,-0.77,3.99,-1.84,0.38,29.37,17.77,39.67,4
3499618,0.54,0.31,-0.76,2.49,-1.62,-0.39,29.37,17.77,39.67,4
3499629,0.55,0.31,-0.77,1.29,-1.42,-0.61,29.37,17.77,39.67,4
3499643,0.55,0.31,-0.78,0.64,-0.1,-0.12,29.33,17.69,39.57,4
3499655,0.55,0.31,-0.79,1.53,0.92,0.25,29.33,17.69,39.57,4
3499666,0.54,0.31,-0.79,2.58,1.47,0.41,29.33,17.69,39.57,4
3499678,0.54,0.31,-0.78,3.57,0.88,0.38,29.33,17.69,39.57,4
3499689,0.55,0.31,-0.78,3.4,0.62,0.35,29.33,17.69,39.57,4
3499700,0.55,0.31,-0.78,2.9,0.66,0.5,29.37,17.52,39.63,4
3499711,0.55,0.31,-0.78,1.94,1.41,0.47,29.37,17.52,39.63,4
3499722,0.54,0.32,-0.79,1.72,1.13,0.34,29.37,17.52,39.63,4
3499733,0.54,0.31,-0.79,1.23,0.57,0.01,29.37,17.52,39.63,4
3499745,0.54,0.31,-0.79,-0.02,-0.92,-0.55,29.44,17.58,39.61,4
3499756,0.54,0.31,-0.8,-0.15,-1.35,-0.44,29.44,17.58,39.61,4
3499768,0.54,0.31,-0.8,0.31,-1.28,-0.12,29.44,17.58,39.61,4
3499782,0.54,0.31,-0.79,2.3,-0.97,0.26,29.44,17.58,39.61,4
3499793,0.54,0.31,-0.78,2.85,-1.26,0.11,29.36,17.59,39.63,4
3499803,0.54,0.31,-0.77,2.65,-1.52,-0.14,29.36,17.59,39.63,4
3499813,0.54,0.31,-0.77,1.78,-1.55,-0.44,29.36,17.59,39.63,4
3499825,0.54,0.31,-0.78,0.23,-1.25,-0.5,29.36,17.59,39.63,4
3499836,0.54,0.31,-0.79,0.58,-0.64,-0.2,29.36,17.59,39.63,4
3499848,0.54,0.3,-0.79,2.93,0.38,0.52,29.32,17.53,39.75,4
3499859,0.54,0.31,-0.78,3.69,0.38,0.58,29.32,17.53,39.75,4
3499871,0.54,0.31,-0.78,3.72,0.28,0.41,29.32,17.53,39.75,4
3499881,0.54,0.32,-0.78,3.06,0.14,0.23,29.32,17.53,39.75,4
3499892,0.54,0.32,-0.78,1.19,0.09,-0.11,29.42,17.46,39.98,4
3499904,0.54,0.31,-0.78,0.73,0.06,-0.33,29.42,17.46,39.98,4
3499915,0.54,0.31,-0.78,0.53,-0.01,-0.6,29.42,17.46,39.98,4
3499927,0.54,0.31,-0.78,0.15,-0.54,-0.87,29.42,17.46,39.98,4
3499939,0.55,0.31,-0.79,-0.03,-0.75,-0.7,29.42,17.46,39.98,4
3499950,0.54,0.31,-0.8,0.19,-0.76,-0.29,29.34,17.49,40.13,4
3499962,0.54,0.31,-0.8,1.79,-0.29,0.61,29.34,17.49,40.13,4
3499972,0.54,0.31,-0.8,2.86,-0.52,0.68,29.34,17.49,40.13,4
3499982,0.54,0.31,-0.79,3.51,-1.03,0.56,29.34,17.49,40.13,4
3499993,0.54,0.31,-0.78,3.46,-1.38,0.34,29.24,17.46,39.89,4
3500005,0.54,0.31,-0.78,1.87,-1.21,0.11,29.24,17.46,39.89,4
3500015,0.54,0.31,-0.79,1.23,-0.69,0.32,29.24,17.46,39.89,4
3500026,0.54,0.31,-0.79,1.12,-0.19,0.58,29.24,17.46,39.89,4
3500037,0.54,0.31,-0.8,2.05,-0.37,0.45,29.24,17.46,39.89,4
3500049,0.53,0.31,-0.79,2.46,-0.69,0.22,29.24,17.57,40.05,4
3500060,0.54,0.31,-0.79,2.59,-0.48,-0.21,29.24,17.57,40.05,4
3500071,0.54,0.31,-0.78,2.33,-0.97,0.0,29.24,17.57,40.05,4
3500082,0.54,0.31,-0.78,1.75,-1.06,0.27,29.24,17.57,40.05,4
3500093,0.54,0.31,-0.78,1.44,-1.14,0.45,29.22,17.53,39.78,4
3500105,0.54,0.31,-0.78,1.47,-1.2,0.49,29.22,17.53,39.78,4
3500117,0.54,0.31,-0.78,1.49,-1.51,0.25,29.22,17.53,39.78,4
3500127,0.54,0.31,-0.78,1.33,-1.55,0.27,29.22,17.53,39.78,4
3500137,0.54,0.31,-0.78,1.28,-1.31,0.37,29.22,17.53,39.78,4
3500148,0.53,0.31,-0.79,1.39,-0.94,0.42,29.25,17.48,39.94,4
3500159,0.53,0.31,-0.79,1.79,-0.82,0.2,29.25,17.48,39.94,4
3500170,0.54,0.31,-0.79,1.74,-0.93,-0.02,29.25,17.48,39.94,4
3500180,0.54,0.31,-0.79,1.68,-0.74,-0.07,29.25,17.48,39.94,4
3500190,0.54,0.31,-0.79,1.84,-0.29,0.1,29.25,17.48,39.94,4
3500202,0.54,0.31,-0.8,2.54,0.4,0.65,29.16,17.46,39.6,4
3500214,0.54,0.31,-0.8,2.99,0.19,0.85,29.16,17.46,39.6,4
3500226,0.54,0.31,-0.8,3.71,-0.78,0.89,29.16,17.46,39.6,4
3500237,0.54,0.32,-0.79,3.89,-1.13,0.84,29.16,17.46,39.6,4
3500248,0.54,0.32,-0.79,3.89,-1.12,0.75,29.05,17.38,39.73,4
3500262,0.54,0.31,-0.78,3.16,-0.97,0.42,29.05,17.38,39.73,4
3500273,0.53,0.31,-0.78,2.44,-1.27,0.23,29.05,17.38,39.73,4
3500284,0.53,0.31,-0.78,1.63,-1.67,0.03,29.05,17.38,39.73,4
3500297,0.53,0.31,-0.79,0.78,-2.05,-0.35,28.98,17.32,39.55,4
3500308,0.53,0.31,-0.79,1.01,-1.84,-0.31,28.98,17.32,39.55,4
3500320,0.53,0.31,-0.79,2.21,-1.17,-0.04,28.98,17.32,39.55,4
3500332,0.53,0.31,-0.78,2.67,-1.18,-0.03,28.98,17.32,39.55,4
3500342,0.53,0.31,-0.77,2.68,-1.19,-0.13,28.94,17.2,39.46,4
3500353,0.53,0.32,-0.77,2.21,-1.01,-0.25,28.94,17.2,39.46,4
3500364,0.53,0.32,-0.77,0.29,-0.35,-0.64,28.94,17.2,39.46,4
3500375,0.53,0.31,-0.79,-0.59,-0.26,-0.74,28.94,17.2,39.46,4
3500385,0.53,0.31,-0.79,-0.96,-0.36,-0.75,28.94,17.2,39.46,4
3500396,0.53,0.31,-0.8,-0.64,-0.44,-0.69,28.96,17.26,39.5,4
3500407,0.53,0.31,-0.8,1.0,-0.49,-0.62,28.96,17.26,39.5,4
3500418,0.54,0.32,-0.8,1.43,-0.82,-0.64,28.96,17.26,39.5,4
3500429,0.54,0.32,-0.8,1.36,-1.38,-0.69,28.96,17.26,39.5,4
3500444,0.54,0.32,-0.8,1.01,-2.06,-0.95,28.96,17.23,39.63,4
3500456,0.54,0.32,-0.8,1.19,-2.07,-1.02,28.96,17.23,39.63,4
3500467,0.54,0.32,-0.8,2.26,-1.59,-1.15,28.96,17.23,39.63,4
3500478,0.54,0.32,-0.79,2.79,-1.57,-1.27,28.96,17.23,39.63,4
3500489,0.54,0.31,-0.79,2.98,-1.77,-1.42,28.96,17.23,39.63,4
3500502,0.54,0.31,-0.79,2.67,-2.34,-1.69,28.87,17.31,39.74,4
3500514,0.54,0.31,-0.79,2.39,-2.5,-1.69,28.87,17.31,39.74,4
3500527,0.54,0.3,-0.79,2.5,-2.55,-1.21,28.87,17.31,39.74,4
3500538,0.54,0.3,-0.79,3.16,-2.29,-0.83,28.87,17.31,39.74,4
3500549,0.54,0.31,-0.79,3.79,-2.07,-0.68,28.91,17.34,39.81,4
3500559,0.53,0.31,-0.78,4.07,-2.1,-0.73,28.91,17.34,39.81,4
3500570,0.53,0.31,-0.78,3.5,-2.37,-1.19,28.91,17.34,39.81,4
3500581,0.54,0.31,-0.78,2.97,-2.43,-1.37,28.91,17.34,39.81,4
3500592,0.54,0.31,-0.78,2.56,-2.47,-1.45,28.92,17.31,39.93,4
3500602,0.54,0.31,-0.79,2.37,-2.54,-1.38,28.92,17.31,39.93,4
3500613,0.54,0.31,-0.79,2.69,-2.48,-1.18,28.92,17.31,39.93,4
3500624,0.54,0.31,-0.79,2.96,-2.57,-1.19,28.92,17.31,39.93,4
3500635,0.54,0.31,-0.79,3.16,-2.69,-1.17,28.92,17.31,39.93,4
3500648,0.54,0.31,-0.78,3.24,-2.65,-0.95,29.04,17.36,40.13,4
3500660,0.54,0.31,-0.78,3.16,-2.54,-0.89,29.04,17.36,40.13,4
3500673,0.55,0.31,-0.78,2.9,-2.21,-0.67,29.04,17.36,40.13,4
3500683,0.55,0.31,-0.79,2.79,-1.86,-0.41,29.04,17.36,40.13,4
3500694,0.55,0.31,-0.79,2.76,-1.5,-0.09,28.97,17.33,40.06,4
3500707,0.55,0.31,-0.79,3.04,-1.49,0.52,28.97,17.33,40.06,4
3500718,0.54,0.31,-0.79,3.26,-1.71,0.64,28.97,17.33,40.06,4
3500729,0.54,0.31,-0.79,3.29,-2.05,0.64,28.97,17.33,40.06,4
3500744,0.54,0.32,-0.78,2.58,-2.74,0.31,29.09,17.23,40.2,4
3500754,0.54,0.31,-0.78,2.24,-2.93,0.13,29.09,17.23,40.2,4
3500764,0.55,0.31,-0.78,2.13,-2.99,-0.02,29.09,17.23,40.2,4
3500777,0.54,0.31,-0.78,2.75,-2.82,0.33,29.09,17.23,40.2,4
3500789,0.54,0.31,-0.78,3.1,-2.66,0.51,29.09,17.23,40.2,4
3500800,0.54,0.31,-0.78,3.35,-2.6,0.59,29.1,17.28,40.3,4
3500812,0.54,0.31,-0.77,3.22,-1.89,0.29,29.1,17.28,40.3,4
3500822,0.54,0.32,-0.77,3.23,-1.43,0.06,29.1,17.28,40.3,4
3500832,0.54,0.32,-0.77,3.38,-1.36,0.26,29.1,17.28,40.3,4
3500843,0.54,0.32,-0.77,3.36,-1.02,0.46,29.05,17.24,40.31,4
3500855,0.54,0.32,-0.77,2.9,-0.99,0.52,29.05,17.24,40.31,4
3500866,0.54,0.32,-0.78,2.46,-1.24,0.32,29.05,17.24,40.31,4
3500877,0.54,0.32,-0.78,2.09,-1.55,0.16,29.05,17.24,40.31,4
3500890,0.54,0.32,-0.78,1.88,-1.64,0.13,29.12,17.13,40.24,4
3500902,0.54,0.32,-0.79,1.98,-1.75,0.11,29.12,17.13,40.24,4
3500912,0.55,0.32,-0.79,2.12,-2.09,0.06,29.12,17.13,40.24,4
3500924,0.55,0.32,-0.79,2.66,-2.68,0.27,29.12,17.13,40.24,4
3500935,0.55,0.32,-0.79,3.42,-2.67,0.47,29.12,17.13,40.24,4
3500946,0.54,0.32,-0.79,4.33,-2.6,0.54,29.13,17.21,40.19,4
3500958,0.54,0.32,-0.78,5.76,-2.27,-0.01,29.13,17.21,40.19,4
3500969,0.54,0.32,-0.77,6.06,-2.44,-0.32,29.13,17.21,40.19,4
3500980,0.54,0.32,-0.77,5.78,-2.76,-0.56,29.13,17.21,40.19,4
3500991,0.54,0.32,-0.76,4.06,-3.03,-1.12,29.17,17.06,40.37,4
3501003,0.54,0.32,-0.76,3.3,-2.85,-1.26,29.17,17.06,40.37,4
3501014,0.55,0.32,-0.77,2.93,-2.44,-1.24,29.17,17.06,40.37,4
3501026,0.55,0.32,-0.77,3.82,-1.79,-0.68,29.17,17.06,40.37,4
3501038,0.55,0.32,-0.77,4.72,-1.55,-0.38,29.17,17.06,40.37,4
3501049,0.54,0.32,-0.77,5.57,-1.33,-0.12,29.16,16.97,40.39,4
3501061,0.54,0.33,-0.77,6.55,-1.25,-0.17,29.16,16.97,40.39,4
3501072,0.54,0.33,-0.77,6.56,-1.4,-0.47,29.16,16.97,40.39,4
3501085,0.54,0.33,-0.77,5.31,-1.88,-1.24,29.16,16.97,40.39,4
3501097,0.55,0.33,-0.77,4.32,-2.11,-1.63,29.15,16.89,40.35,4
3501108,0.55,0.33,-0.78,3.46,-2.36,-1.83,29.15,16.89,40.35,4
3501119,0.56,0.33,-0.78,3.22,-2.44,-1.57,29.15,16.89,40.35,4
3501130,0.55,0.33,-0.79,3.98,-2.44,-1.27,29.15,16.89,40.35,4
3501141,0.55,0.33,-0.79,4.83,-2.74,-1.26,29.09,16.77,40.41,4
3501155,0.54,0.33,-0.78,5.12,-4.66,-2.31,29.09,16.77,40.41,4
3501166,0.55,0.33,-0.78,4.54,-5.97,-3.04,29.09,16.77,40.41,4
3501177,0.55,0.32,-0.78,4.0,-7.34,-3.62,29.09,16.77,40.41,4
3501187,0.55,0.32,-0.78,3.67,-8.72,-4.05,29.09,16.77,40.41,4
3501200,0.55,0.32,-0.77,3.56,-11.75,-5.27,29.25,16.67,40.71,4
3501210,0.55,0.32,-0.77,3.29,-13.09,-6.17,29.25,16.67,40.71,4
3501222,0.55,0.32,-0.76,2.52,-14.94,-7.24,29.25,16.67,40.71,4
3501233,0.56,0.32,-0.76,2.58,-14.87,-7.52,29.25,16.67,40.71,4
3501244,0.57,0.31,-0.76,3.47,-14.16,-7.76,29.45,16.52,40.57,4
3501258,0.58,0.32,-0.76,6.08,-11.75,-6.96,29.45,16.52,40.57,4
3501270,0.58,0.32,-0.75,7.51,-10.09,-6.34,29.45,16.52,40.57,4
3501282,0.58,0.32,-0.75,8.79,-7.81,-5.31,29.45,16.52,40.57,4
3501294,0.58,0.33,-0.74,8.42,-7.78,-5.19,29.67,16.41,40.35,4
3501306,0.58,0.33,-0.75,7.56,-8.83,-5.38,29.67,16.41,40.35,4
3501317,0.58,0.33,-0.75,5.32,-12.84,-6.58,29.67,16.41,40.35,4
3501328,0.59,0.32,-0.76,5.04,-14.61,-7.12,29.67,16.41,40.35,4
3501340,0.59,0.32,-0.76,5.99,-15.21,-7.12,29.95,16.24,40.19,4
3501351,0.6,0.32,-0.76,10.73,-12.99,-5.73,29.95,16.24,40.19,4
3501362,0.6,0.31,-0.75,13.28,-11.48,-4.86,29.95,16.24,40.19,4
3501374,0.6,0.31,-0.75,15.38,-10.34,-4.19,29.95,16.24,40.19,4
3501388,0.61,0.32,-0.74,19.02,-7.88,-3.15,29.95,16.24,40.19,4
3501399,0.61,0.32,-0.73,20.92,-6.05,-1.99,30.15,16.1,39.83,4
3501411,0.62,0.32,-0.73,24.31,-0.2,1.5,30.15,16.1,39.83,4
3501422,0.62,0.34,-0.73,25.45,2.68,3.36,30.15,16.1,39.83,4
3501434,0.62,0.34,-0.73,26.03,4.54,5.21,30.15,16.1,39.83,4
3501446,0.61,0.36,-0.74,25.81,4.78,8.25,30.42,15.85,39.82,4
3501457,0.6,0.39,-0.73,25.33,4.3,8.69,30.42,15.85,39.82,4
3501468,0.59,0.39,-0.73,24.95,4.17,8.59,30.42,15.85,39.82,4
3501481,0.59,0.4,-0.71,23.87,5.14,7.76,30.42,15.85,39.82,4
3501492,0.59,0.4,-0.7,22.69,5.69,6.93,30.49,15.56,39.82,4
3501503,0.59,0.4,-0.7,20.79,6.09,5.8,30.49,15.56,39.82,4
3501514,0.59,0.4,-0.69,15.96,7.68,4.63,30.49,15.56,39.82,4
3501525,0.59,0.38,-0.7,13.87,8.95,4.75,30.49,15.56,39.82,4
3501537,0.59,0.38,-0.7,12.17,9.95,5.12,30.49,15.56,39.82,4
3501549,0.58,0.38,-0.71,9.99,9.69,5.62,30.57,15.09,40.02,4
3501560,0.56,0.37,-0.72,9.83,8.78,5.31,30.57,15.09,40.02,4
3501571,0.56,0.37,-0.71,9.83,7.53,4.57,30.57,15.09,40.02,4
3501581,0.56,0.37,-0.71,9.45,6.03,3.7,30.57,15.09,40.02,4
3501594,0.56,0.37,-0.7,7.13,2.32,2.03,30.39,14.6,40.22,4
3501605,0.56,0.36,-0.7,5.41,-0.09,1.29,30.39,14.6,40.22,4
3501617,0.56,0.36,-0.7,2.57,-3.43,0.25,30.39,14.6,40.22,4
3501628,0.57,0.36,-0.71,2.21,-3.2,-0.22,30.39,14.6,40.22,4
3501639,0.57,0.36,-0.71,2.39,-2.33,-0.24,30.33,14.18,40.26,4
3501653,0.58,0.36,-0.72,2.79,-1.64,1.2,30.33,14.18,40.26,4
3501664,0.58,0.37,-0.72,3.28,-1.3,2.0,30.33,14.18,40.26,4
3501676,0.58,0.37,-0.72,4.25,-0.84,2.91,30.33,14.18,40.26,4
3501688,0.58,0.38,-0.73,7.59,1.05,4.88,30.33,14.18,40.26,4
3501699,0.57,0.39,-0.73,9.5,1.83,5.67,30.35,13.88,40.01,4
3501709,0.57,0.4,-0.73,10.87,2.12,6.05,30.35,13.88,40.01,4
3501722,0.57,0.4,-0.74,12.64,1.8,6.8,30.35,13.88,40.01,4
3501733,0.57,0.41,-0.74,13.58,1.66,7.33,30.35,13.88,40.01,4
3501744,0.57,0.41,-0.73,14.52,1.72,7.81,30.29,13.55,40.06,4
3501755,0.57,0.41,-0.73,15.51,2.87,8.89,30.29,13.55,40.06,4
3501766,0.58,0.42,-0.72,15.84,3.59,9.68,30.29,13.55,40.06,4
3501776,0.57,0.42,-0.72,16.39,4.49,10.53,30.29,13.55,40.06,4
3501787,0.57,0.42,-0.72,17.12,5.67,11.18,30.29,13.55,40.06,4
3501800,0.56,0.42,-0.71,18.05,7.59,11.64,30.18,13.12,40.12,4
3501810,0.56,0.42,-0.71,17.8,7.34,11.66,30.18,13.12,40.12,4
3501820,0.55,0.42,-0.71,17.47,6.36,11.82,30.18,13.12,40.12,4
3501832,0.55,0.42,-0.71,16.56,3.29,12.26,30.18,13.12,40.12,4
3501844,0.54,0.43,-0.71,16.05,1.7,12.3,30.08,12.55,40.15,4
3501854,0.54,0.44,-0.7,15.51,0.45,12.12,30.08,12.55,40.15,4
3501864,0.54,0.44,-0.7,14.93,-0.43,11.86,30.08,12.55,40.15,4
3501874,0.54,0.45,-0.7,14.32,-1.16,11.38,30.08,12.55,40.15,4
3501886,0.54,0.46,-0.7,12.7,-2.47,9.47,30.08,12.55,40.15,4
3501896,0.54,0.45,-0.7,11.7,-3.15,8.6,29.97,11.93,40.3,4
3501908,0.55,0.45,-0.7,10.87,-3.71,7.95,29.97,11.93,40.3,4
3501920,0.54,0.46,-0.7,9.3,-4.31,6.92,29.97,11.93,40.3,4
3501930,0.54,0.47,-0.7,8.4,-4.38,6.32,29.97,11.93,40.3,4
3501941,0.54,0.47,-0.7,7.47,-4.57,5.75,29.88,11.43,40.37,4
3501951,0.54,0.47,-0.71,6.86,-4.86,5.3,29.88,11.43,40.37,4
3501962,0.54,0.46,-0.7,6.88,-4.89,4.5,29.88,11.43,40.37,4
3501974,0.55,0.46,-0.7,7.06,-4.71,4.19,29.88,11.43,40.37,4
3501986,0.55,0.46,-0.7,6.83,-5.76,4.19,29.88,11.43,40.37,4
3501998,0.54,0.47,-0.7,6.63,-7.06,3.97,29.96,10.97,40.33,4
3502010,0.54,0.47,-0.69,6.26,-8.22,3.46,29.96,10.97,40.33,4
3502021,0.54,0.47,-0.68,5.55,-8.8,2.26,29.96,10.97,40.33,4
3502032,0.55,0.48,-0.67,5.37,-8.01,1.87,29.96,10.97,40.33,4
3502043,0.55,0.48,-0.67,5.25,-6.74,1.74,30.01,10.59,40.37,4
3502053,0.55,0.48,-0.67,5.22,-5.2,1.85,30.01,10.59,40.37,4
3502063,0.55,0.48,-0.67,5.38,-3.6,2.05,30.01,10.59,40.37,4
3502074,0.54,0.49,-0.68,5.6,-1.69,1.62,30.01,10.59,40.37,4
3502086,0.54,0.49,-0.67,5.2,-1.49,0.95,30.01,10.59,40.37,4
3502097,0.55,0.49,-0.67,4.29,-1.61,0.28,30.07,10.22,40.37,4
3502109,0.55,0.48,-0.68,1.75,-2.16,-0.6,30.07,10.22,40.37,4
3502120,0.56,0.48,-0.68,0.89,-2.44,-0.56,30.07,10.22,40.37,4
3502134,0.55,0.47,-0.69,1.58,-3.07,0.05,30.07,10.22,40.37,4
3502145,0.54,0.48,-0.69,2.74,-3.26,-0.06,30.19,9.94,40.53,4
3502156,0.54,0.48,-0.68,3.71,-3.24,-0.46,30.19,9.94,40.53,4
3502168,0.54,0.49,-0.65,3.0,-2.74,-1.84,30.19,9.94,40.53,4
3502180,0.55,0.49,-0.65,1.22,-2.01,-2.53,30.19,9.94,40.53,4
3502191,0.56,0.49,-0.65,-0.93,-0.96,-2.9,30.29,9.6,40.4,4
3502203,0.56,0.47,-0.68,-3.7,0.47,-2.51,30.29,9.6,40.4,4
3502215,0.55,0.47,-0.69,-3.6,0.52,-2.15,30.29,9.6,40.4,4
3502229,0.55,0.47,-0.69,-1.47,0.51,-1.37,30.29,9.6,40.4,4
3502239,0.55,0.47,-0.69,-0.69,0.52,-1.23,30.35,9.56,40.18,4
3502251,0.55,0.48,-0.68,-0.62,0.24,-1.16,30.35,9.56,40.18,4
3502263,0.55,0.48,-0.68,-2.42,-0.52,-1.34,30.35,9.56,40.18,4
3502274,0.55,0.48,-0.68,-3.79,-0.62,-1.64,30.35,9.56,40.18,4
3502288,0.55,0.48,-0.68,-6.34,-0.94,-2.42,30.42,9.43,40.27,4
3502300,0.55,0.47,-0.69,-6.99,-1.23,-2.58,30.42,9.43,40.27,4
3502311,0.56,0.46,-0.69,-7.33,-1.42,-2.73,30.42,9.43,40.27,4
3502324,0.56,0.45,-0.7,-6.99,-1.57,-2.16,30.42,9.43,40.27,4
3502334,0.56,0.44,-0.7,-5.87,-1.36,-1.32,30.42,9.43,40.27,4
3502345,0.56,0.44,-0.7,-4.03,-0.66,-0.5,30.54,9.48,40.28,4
3502356,0.56,0.45,-0.69,-1.57,1.9,0.32,30.54,9.48,40.28,4
3502367,0.56,0.45,-0.68,-2.1,2.6,0.6,30.54,9.48,40.28,4
3502378,0.55,0.46,-0.68,-3.59,2.52,0.75,30.54,9.48,40.28,4
3502390,0.55,0.45,-0.69,-6.78,1.21,0.54,30.45,9.41,40.15,4
3502401,0.55,0.45,-0.72,-7.2,0.42,0.63,30.45,9.41,40.15,4
3502412,0.55,0.44,-0.72,-6.62,-0.25,0.54,30.45,9.41,40.15,4
3502426,0.55,0.44,-0.72,-3.94,-1.39,0.05,30.45,9.41,40.15,4
3502439,0.55,0.45,-0.71,-2.72,-1.65,0.04,30.5,9.6,39.96,4
3502452,0.56,0.45,-0.7,-1.19,-0.78,0.68,30.5,9.6,39.96,4
3502464,0.55,0.46,-0.7,-1.13,0.13,0.91,30.5,9.6,39.96,4
3502477,0.55,0.45,-0.7,-2.18,1.35,1.21,30.5,9.6,39.96,4
3502488,0.55,0.45,-0.7,-2.81,1.49,1.4,30.54,9.72,39.89,4
3502500,0.55,0.45,-0.71,-2.9,1.31,1.52,30.54,9.72,39.89,4
3502511,0.55,0.45,-0.71,-1.89,0.47,1.33,30.54,9.72,39.89,4
3502522,0.54,0.45,-0.71,-1.7,-0.15,0.99,30.54,9.72,39.89,4
3502532,0.54,0.45,-0.7,-2.05,-0.87,0.45,30.54,9.72,39.89,4
3502543,0.54,0.45,-0.7,-2.82,-1.78,-0.13,30.56,9.91,39.91,4
3502555,0.55,0.44,-0.71,-4.05,-3.42,-0.83,30.56,9.91,39.91,4
3502566,0.55,0.44,-0.72,-3.56,-3.5,-0.54,30.56,9.91,39.91,4
3502579,0.55,0.44,-0.72,-0.67,-2.07,0.14,30.56,9.91,39.91,4
3502591,0.55,0.45,-0.7,0.29,-1.34,0.22,30.55,10.05,39.85,4
3502602,0.55,0.45,-0.69,0.05,-0.99,0.2,30.55,10.05,39.85,4
3502613,0.55,0.45,-0.69,-2.98,-1.16,0.08,30.55,10.05,39.85,4
3502624,0.55,0.44,-0.71,-4.27,-1.4,0.14,30.55,10.05,39.85,4
3502636,0.55,0.44,-0.72,-4.56,-1.52,0.22,30.55,10.05,39.85,4
3502648,0.55,0.44,-0.72,-2.92,-1.53,0.2,30.49,10.15,39.78,4
3502659,0.55,0.44,-0.7,-2.61,-1.49,-0.14,30.49,10.15,39.78,4
3502670,0.55,0.44,-0.69,-3.3,-1.56,-0.53,30.49,10.15,39.78,4
3502684,0.55,0.44,-0.7,-6.76,-1.96,-1.18,30.49,10.15,39.78,4
3502695,0.55,0.44,-0.71,-8.38,-2.39,-1.28,30.44,10.35,39.83,4
3502708,0.55,0.43,-0.71,-8.99,-2.75,-0.85,30.44,10.35,39.83,4
3502719,0.56,0.43,-0.71,-8.16,-2.2,-0.38,30.44,10.35,39.83,4
3502730,0.56,0.43,-0.71,-7.07,-1.22,0.35,30.44,10.35,39.83,4
3502742,0.56,0.43,-0.71,-6.06,0.62,1.31,30.4,10.47,39.99,4
3502753,0.55,0.43,-0.71,-6.23,1.14,1.53,30.4,10.47,39.99,4
3502765,0.55,0.42,-0.71,-6.57,1.66,1.88,30.4,10.47,39.99,4
3502778,0.56,0.42,-0.72,-7.42,2.49,3.44,30.4,10.47,39.99,4
3502789,0.56,0.42,-0.72,-7.21,3.07,5.0,30.38,10.63,40.22,4
3502801,0.55,0.42,-0.73,-6.21,4.12,6.49,30.38,10.63,40.22,4
3502813,0.54,0.43,-0.72,-3.83,6.25,7.0,30.38,10.63,40.22,4
3502824,0.54,0.43,-0.72,-3.62,6.78,6.37,30.38,10.63,40.22,4
3502838,0.54,0.44,-0.72,-4.96,6.59,5.16,30.36,10.91,40.16,4
3502849,0.53,0.43,-0.73,-5.29,6.05,4.63,30.36,10.91,40.16,4
3502861,0.53,0.43,-0.74,-4.58,5.85,4.26,30.36,10.91,40.16,4
3502873,0.54,0.42,-0.73,-1.49,6.66,4.89,30.36,10.91,40.16,4
3502884,0.54,0.42,-0.72,-0.86,7.53,5.43,30.36,10.91,40.16,4
3502895,0.54,0.43,-0.72,-1.24,8.31,5.83,30.3,11.21,40.24,4
3502907,0.53,0.43,-0.72,-4.04,8.96,6.32,30.3,11.21,40.24,4
3502919,0.53,0.43,-0.73,-5.63,8.55,6.41,30.3,11.21,40.24,4
3502931,0.53,0.42,-0.75,-6.51,7.23,7.17,30.3,11.21,40.24,4
3502943,0.52,0.42,-0.76,-5.22,6.77,7.6,30.16,11.43,40.23,4
3502954,0.52,0.42,-0.76,-3.33,6.85,8.0,30.16,11.43,40.23,4
3502968,0.54,0.42,-0.74,-0.61,9.31,10.02,30.16,11.43,40.23,4
3502979,0.54,0.42,-0.74,0.17,10.8,11.92,30.16,11.43,40.23,4
3502991,0.53,0.43,-0.75,1.11,12.57,16.18,29.81,11.64,40.1,4
3503002,0.5,0.43,-0.76,1.54,12.52,17.24,29.81,11.64,40.1,4
3503014,0.49,0.44,-0.76,1.97,11.88,17.17,29.81,11.64,40.1,4
3503027,0.48,0.44,-0.77,2.28,9.1,14.9,29.81,11.64,40.1,4
3503038,0.48,0.44,-0.77,2.19,7.06,13.46,29.43,11.86,40.35,4
3503050,0.48,0.44,-0.78,2.44,5.3,12.46,29.43,11.86,40.35,4
3503062,0.48,0.44,-0.77,3.59,4.15,11.09,29.43,11.86,40.35,4
3503072,0.48,0.44,-0.77,3.86,3.89,10.36,29.43,11.86,40.35,4
3503083,0.49,0.44,-0.78,3.56,2.86,9.73,29.43,11.86,40.35,4
3503096,0.48,0.44,-0.79,1.99,-2.49,8.75,29.22,11.83,40.35,4
3503107,0.48,0.44,-0.79,1.39,-6.09,7.87,29.22,11.83,40.35,4
3503120,0.48,0.44,-0.77,1.26,-11.16,5.22,29.22,11.83,40.35,4
3503131,0.48,0.44,-0.75,0.57,-11.81,3.72,29.22,11.83,40.35,4
3503142,0.5,0.44,-0.75,-0.66,-11.92,2.58,29.11,11.84,40.36,4
3503154,0.5,0.43,-0.76,-2.09,-12.11,2.99,29.11,11.84,40.36,4
3503165,0.5,0.42,-0.76,-1.49,-11.67,3.75,29.11,11.84,40.36,4
3503177,0.5,0.42,-0.76,-0.65,-10.85,4.31,29.11,11.84,40.36,4
3503189,0.5,0.42,-0.75,-0.65,-9.41,4.93,29.12,11.79,40.47,4
3503200,0.5,0.43,-0.75,-1.61,-9.18,4.99,29.12,11.79,40.47,4
3503211,0.5,0.44,-0.76,-2.43,-9.55,5.05,29.12,11.79,40.47,4
3503225,0.49,0.44,-0.77,-1.29,-10.9,4.97,29.12,11.79,40.47,4
3503237,0.49,0.44,-0.76,-0.12,-11.68,4.18,29.09,11.73,40.17,4
3503248,0.49,0.44,-0.75,0.53,-12.61,3.06,29.09,11.73,40.17,4
3503260,0.5,0.44,-0.73,0.1,-14.07,0.65,29.09,11.73,40.17,4
3503271,0.5,0.45,-0.72,-0.83,-13.96,-0.46,29.09,11.73,40.17,4
3503283,0.51,0.44,-0.72,-4.18,-13.04,-2.08,29.09,11.73,40.17,4
3503296,0.51,0.43,-0.74,-5.71,-13.73,-2.34,29.39,11.76,40.14,4
3503306,0.51,0.42,-0.74,-6.35,-14.87,-2.46,29.39,11.76,40.14,4
3503319,0.52,0.41,-0.73,-5.95,-16.78,-2.34,29.39,11.76,40.14,4
3503330,0.52,0.42,-0.72,-6.3,-16.48,-2.1,29.39,11.76,40.14,4
3503341,0.53,0.42,-0.72,-7.46,-15.84,-1.71,29.63,11.83,39.97,4
3503352,0.53,0.42,-0.73,-9.72,-15.43,-1.67,29.63,11.83,39.97,4
3503363,0.53,0.41,-0.75,-9.81,-15.59,-1.52,29.63,11.83,39.97,4
3503374,0.53,0.41,-0.75,-9.06,-15.3,-1.21,29.63,11.83,39.97,4
3503385,0.54,0.42,-0.74,-7.8,-14.12,-0.8,29.63,11.83,39.97,4
3503398,0.54,0.42,-0.73,-7.29,-12.28,-0.14,30.03,12.04,39.98,4
3503409,0.54,0.42,-0.74,-8.46,-12.73,-0.23,30.03,12.04,39.98,4
3503421,0.54,0.42,-0.74,-10.42,-15.51,-0.4,30.03,12.04,39.98,4
3503432,0.54,0.41,-0.75,-9.64,-15.71,-0.22,30.03,12.04,39.98,4
3503443,0.54,0.41,-0.75,-8.18,-15.29,0.05,30.36,12.19,39.94,4
3503456,0.54,0.41,-0.73,-6.98,-16.67,0.81,30.36,12.19,39.94,4
3503468,0.54,0.41,-0.73,-8.2,-18.62,0.6,30.36,12.19,39.94,4
3503480,0.55,0.41,-0.73,-9.74,-20.48,0.08,30.36,12.19,39.94,4
3503493,0.56,0.4,-0.73,-10.66,-21.75,-0.36,30.73,12.36,39.72,4
3503503,0.57,0.4,-0.73,-9.09,-20.67,0.12,30.73,12.36,39.72,4
3503513,0.57,0.4,-0.72,-6.94,-18.85,0.74,30.73,12.36,39.72,4
3503524,0.57,0.4,-0.72,-5.07,-16.51,1.62,30.73,12.36,39.72,4
3503536,0.57,0.4,-0.71,-5.97,-15.77,1.54,31.3,12.76,39.47,4
3503546,0.57,0.4,-0.71,-6.79,-15.44,1.32,31.3,12.76,39.47,4
3503559,0.57,0.4,-0.72,-6.86,-14.74,0.68,31.3,12.76,39.47,4
3503570,0.56,0.39,-0.72,-6.11,-14.47,0.51,31.3,12.76,39.47,4
3503580,0.56,0.4,-0.72,-5.24,-14.26,0.44,31.3,12.76,39.47,4
3503591,0.57,0.4,-0.71,-4.71,-14.09,0.06,31.6,13.06,39.02,4
3503603,0.57,0.4,-0.71,-5.06,-14.35,-0.89,31.6,13.06,39.02,4
3503614,0.57,0.4,-0.71,-5.63,-14.46,-1.42,31.6,13.06,39.02,4
3503628,0.58,0.39,-0.72,-5.73,-13.88,-1.81,31.6,13.06,39.02,4
3503639,0.59,0.39,-0.72,-4.92,-13.39,-1.52,32.02,13.32,38.7,4
3503651,0.59,0.39,-0.72,-3.84,-12.94,-1.25,32.02,13.32,38.7,4
3503663,0.59,0.39,-0.71,-1.91,-12.71,-1.41,32.02,13.32,38.7,4
3503674,0.59,0.39,-0.7,-1.49,-12.67,-1.62,32.02,13.32,38.7,4
3503686,0.6,0.39,-0.7,-1.48,-12.47,-1.75,32.46,13.68,38.43,4
3503698,0.6,0.38,-0.71,-0.97,-11.56,-1.56,32.46,13.68,38.43,4
3503709,0.6,0.38,-0.72,-0.19,-11.15,-1.3,32.46,13.68,38.43,4
3503723,0.6,0.37,-0.72,2.94,-10.86,-0.22,32.46,13.68,38.43,4
3503736,0.6,0.37,-0.72,4.99,-10.7,0.41,32.84,13.83,38.31,4
3503746,0.6,0.38,-0.71,6.63,-10.91,0.68,32.84,13.83,38.31,4
3503758,0.6,0.4,-0.71,7.38,-13.58,-0.19,32.84,13.83,38.31,4
3503768,0.6,0.4,-0.7,6.76,-15.01,-0.86,32.84,13.83,38.31,4
3503778,0.6,0.39,-0.69,6.0,-16.29,-1.84,32.84,13.83,38.31,4
3503789,0.61,0.38,-0.69,5.91,-17.17,-2.57,33.31,13.96,37.76,4
3503801,0.62,0.38,-0.69,8.04,-16.51,-2.52,33.31,13.96,37.76,4
3503812,0.62,0.38,-0.68,9.19,-15.8,-2.41,33.31,13.96,37.76,4
3503825,0.62,0.39,-0.68,9.76,-14.68,-2.44,33.31,13.96,37.76,4
3503836,0.62,0.39,-0.66,8.91,-14.19,-2.49,33.82,13.96,37.54,4
3503848,0.62,0.39,-0.66,7.53,-13.87,-2.68,33.82,13.96,37.54,4
3503860,0.63,0.39,-0.65,5.46,-13.07,-2.98,33.82,13.96,37.54,4
3503872,0.63,0.39,-0.65,4.91,-11.63,-2.92,33.82,13.96,37.54,4
3503882,0.64,0.39,-0.66,4.46,-9.91,-2.73,33.82,13.96,37.54,4
3503895,0.63,0.38,-0.66,4.21,-8.58,-2.25,34.26,13.99,37.15,4
3503906,0.63,0.39,-0.66,4.08,-8.99,-2.13,34.26,13.99,37.15,4
3503920,0.64,0.39,-0.65,3.14,-8.42,-2.02,34.26,13.99,37.15,4
3503932,0.64,0.39,-0.64,2.59,-7.13,-2.08,34.26,13.99,37.15,4
3503943,0.64,0.39,-0.64,1.73,-5.84,-2.29,34.73,13.9,37.12,4
3503955,0.64,0.39,-0.65,-0.71,-4.78,-2.52,34.73,13.9,37.12,4
3503966,0.65,0.39,-0.66,-1.58,-4.63,-2.4,34.73,13.9,37.12,4
3503977,0.65,0.38,-0.66,-1.76,-4.32,-2.03,34.73,13.9,37.12,4
3503990,0.65,0.38,-0.66,-0.42,-2.82,-1.32,35.16,13.89,37.06,4
3504000,0.65,0.38,-0.65,0.39,-1.67,-1.11,35.16,13.89,37.06,4
3504011,0.65,0.38,-0.64,0.46,-0.48,-0.88,35.16,13.89,37.06,4
3504023,0.65,0.38,-0.65,-1.63,-0.58,-0.23,35.16,13.89,37.06,4
3504035,0.64,0.39,-0.66,-3.26,-1.86,-0.38,35.54,13.92,37.04,4
3504047,0.65,0.38,-0.66,-5.26,-4.59,-1.17,35.54,13.92,37.04,4
3504058,0.65,0.38,-0.66,-5.57,-5.48,-1.25,35.54,13.92,37.04,4
3504069,0.66,0.38,-0.66,-5.5,-5.7,-1.02,35.54,13.92,37.04,4
3504080,0.66,0.38,-0.66,-5.16,-5.28,-0.59,35.54,13.92,37.04,4
3504093,0.65,0.38,-0.66,-4.77,-3.53,-0.12,35.72,14.02,36.88,4
3504104,0.65,0.39,-0.66,-4.92,-2.55,-0.4,35.72,14.02,36.88,4
3504114,0.65,0.38,-0.66,-5.37,-1.84,-0.75,35.72,14.02,36.88,4
3504125,0.66,0.38,-0.66,-6.63,-1.64,-0.91,35.72,14.02,36.88,4
3504137,0.66,0.37,-0.67,-6.96,-1.87,-0.7,35.91,14.14,36.56,4
3504148,0.66,0.36,-0.67,-6.97,-1.96,-0.56,35.91,14.14,36.56,4
3504161,0.66,0.37,-0.66,-7.78,-1.29,-0.63,35.91,14.14,36.56,4
3504172,0.65,0.37,-0.66,-9.03,-0.96,-0.61,35.91,14.14,36.56,4
3504183,0.64,0.38,-0.66,-10.67,-0.84,-0.82,35.91,14.14,36.56,4
3504196,0.64,0.38,-0.68,-14.79,-1.24,-3.21,36.1,14.27,36.4,4
3504208,0.64,0.38,-0.69,-17.21,-2.06,-5.14,36.1,14.27,36.4,4
3504218,0.64,0.37,-0.69,-19.58,-3.64,-7.01,36.1,14.27,36.4,4
3504230,0.66,0.35,-0.7,-23.25,-7.93,-9.51,36.1,14.27,36.4,4
3504241,0.67,0.34,-0.7,-24.1,-9.59,-9.81,36.21,14.65,36.35,4
3504251,0.67,0.33,-0.7,-23.69,-10.33,-9.3,36.21,14.65,36.35,4
3504264,0.67,0.32,-0.71,-18.99,-8.18,-6.96,36.21,14.65,36.35,4
3504275,0.67,0.32,-0.71,-15.44,-6.25,-5.74,36.21,14.65,36.35,4
3504286,0.66,0.32,-0.7,-11.93,-4.77,-4.69,36.28,15.12,36.33,4
3504297,0.66,0.32,-0.69,-6.8,-3.6,-3.63,36.28,15.12,36.33,4
3504308,0.65,0.32,-0.67,-6.05,-3.35,-3.53,36.28,15.12,36.33,4
3504320,0.65,0.33,-0.67,-6.1,-3.32,-3.52,36.28,15.12,36.33,4
3504333,0.65,0.32,-0.67,-7.04,-4.98,-3.4,36.28,15.12,36.33,4
3504344,0.65,0.31,-0.68,-6.96,-6.7,-3.23,36.34,15.6,36.06,4
3504357,0.65,0.31,-0.67,-5.25,-8.62,-3.09,36.34,15.6,36.06,4
3504368,0.66,0.3,-0.66,-4.26,-8.38,-3.03,36.34,15.6,36.06,4
3504379,0.66,0.31,-0.65,-3.53,-7.61,-2.83,36.34,15.6,36.06,4
3504393,0.67,0.31,-0.66,-3.2,-5.33,-2.21,36.43,16.01,35.88,4
3504403,0.67,0.31,-0.66,-3.38,-4.37,-2.12,36.43,16.01,35.88,4
3504414,0.66,0.31,-0.67,-3.27,-3.78,-2.06,36.43,16.01,35.88,4
3504425,0.66,0.31,-0.68,-1.17,-3.43,-1.82,36.43,16.01,35.88,4
3504437,0.67,0.31,-0.67,0.28,-3.01,-1.76,36.61,16.4,35.9,4
3504448,0.67,0.31,-0.66,1.37,-2.33,-1.76,36.61,16.4,35.9,4
3504458,0.67,0.31,-0.66,1.97,-1.77,-1.61,36.61,16.4,35.9,4
3504469,0.67,0.31,-0.66,2.4,-1.15,-0.6,36.61,16.4,35.9,4
3504479,0.67,0.31,-0.66,2.25,-1.18,-0.16,36.61,16.4,35.9,4
3504491,0.67,0.31,-0.67,1.83,-1.55,-0.03,36.73,16.7,35.69,4
3504503,0.66,0.31,-0.67,0.66,-2.72,-0.65,36.73,16.7,35.69,4
3504514,0.66,0.31,-0.67,0.32,-3.12,-1.08,36.73,16.7,35.69,4
3504525,0.67,0.31,-0.67,0.33,-3.23,-1.41,36.73,16.7,35.69,4
3504538,0.67,0.3,-0.67,1.01,-2.69,-1.36,36.75,17.06,35.42,4
3504550,0.68,0.3,-0.68,1.82,-2.36,-0.65,36.75,17.06,35.42,4
3504563,0.68,0.3,-0.69,5.86,-1.11,1.66,36.75,17.06,35.42,4
3504574,0.67,0.3,-0.68,8.58,-0.29,2.51,36.75,17.06,35.42,4
3504585,0.67,0.31,-0.67,10.51,0.15,2.94,36.86,17.27,35.27,4
3504597,0.67,0.31,-0.66,10.23,-0.08,2.24,36.86,17.27,35.27,4
3504608,0.66,0.33,-0.65,8.48,-0.45,1.29,36.86,17.27,35.27,4
3504619,0.67,0.33,-0.66,6.22,-0.96,0.24,36.86,17.27,35.27,4
3504634,0.67,0.32,-0.68,2.78,-2.03,-1.61,37.01,17.27,35.24,4
3504646,0.67,0.31,-0.68,2.37,-2.25,-1.96,37.01,17.27,35.24,4
3504659,0.68,0.31,-0.69,3.71,-1.9,-1.42,37.01,17.27,35.24,4
3504670,0.68,0.31,-0.68,4.52,-1.79,-0.98,37.01,17.27,35.24,4
3504684,0.68,0.31,-0.68,4.31,-2.37,-0.68,37.02,17.34,35.14,4
3504696,0.68,0.31,-0.67,3.61,-2.71,-0.62,37.02,17.34,35.14,4
3504707,0.68,0.31,-0.68,3.05,-2.99,-0.47,37.02,17.34,35.14,4
3504719,0.67,0.31,-0.68,2.61,-3.78,-0.06,37.02,17.34,35.14,4
3504730,0.67,0.31,-0.68,2.63,-4.45,-0.06,37.02,17.34,35.14,4
3504741,0.67,0.32,-0.67,2.68,-5.17,-0.28,37.15,17.51,35.09,4
3504753,0.67,0.32,-0.66,2.69,-5.8,-1.17,37.15,17.51,35.09,4
3504765,0.67,0.32,-0.66,2.42,-5.48,-1.71,37.15,17.51,35.09,4
3504779,0.68,0.32,-0.66,0.91,-4.62,-2.43,37.15,17.51,35.09,4
3504790,0.67,0.32,-0.66,0.04,-4.37,-2.89,37.17,17.48,35.17,4
3504801,0.68,0.32,-0.66,-0.74,-4.17,-3.56,37.17,17.48,35.17,4
3504813,0.68,0.32,-0.66,-1.97,-3.74,-4.75,37.17,17.48,35.17,4
3504825,0.68,0.31,-0.66,-2.45,-3.6,-5.16,37.17,17.48,35.17,4
3504836,0.69,0.31,-0.66,-2.7,-3.56,-5.33,37.22,17.46,35.23,4
3504848,0.69,0.3,-0.66,-2.2,-3.03,-4.62,37.22,17.46,35.23,4
3504860,0.69,0.3,-0.67,-1.55,-2.56,-4.01,37.22,17.46,35.23,4
3504874,0.68,0.3,-0.67,-0.06,-2.17,-2.89,37.22,17.46,35.23,4
3504884,0.68,0.3,-0.66,0.55,-2.15,-2.56,37.16,17.51,34.95,4
3504896,0.68,0.29,-0.66,1.07,-2.15,-2.35,37.16,17.51,34.95,4
3504908,0.68,0.29,-0.66,1.77,-2.08,-1.9,37.16,17.51,34.95,4
3504919,0.68,0.29,-0.65,1.85,-1.86,-1.65,37.16,17.51,34.95,4
3504930,0.68,0.29,-0.65,1.73,-1.58,-1.4,37.16,17.51,34.95,4
3504942,0.68,0.29,-0.66,0.76,-1.51,-1.12,37.22,17.45,34.9,4
3504953,0.68,0.29,-0.66,0.25,-1.65,-1.14,37.22,17.45,34.9,4
3504964,0.68,0.29,-0.66,0.09,-1.61,-1.12,37.22,17.45,34.9,4
3504975,0.69,0.3,-0.67,0.74,-1.02,-0.83,37.22,17.45,34.9,4
3504987,0.69,0.3,-0.66,1.05,-0.86,-0.62,37.36,17.6,34.64,4
3504998,0.69,0.3,-0.66,1.23,-0.88,-0.54,37.36,17.6,34.64,4
3505009,0.69,0.29,-0.66,1.33,-0.73,-0.31,37.36,17.6,34.64,4
3505020,0.69,0.3,-0.67,1.4,-0.5,-0.02,37.36,17.6,34.64,4
3505033,0.69,0.3,-0.67,1.44,-0.26,0.3,37.34,17.66,34.68,4
3505044,0.69,0.3,-0.67,1.38,-0.63,0.38,37.34,17.66,34.68,4
3505055,0.68,0.3,-0.67,1.12,-1.19,0.08,37.34,17.66,34.68,4
3505066,0.69,0.3,-0.67,0.82,-1.61,-0.21,37.34,17.66,34.68,4
3505080,0.69,0.3,-0.68,0.62,-1.92,-0.23,37.34,17.66,34.68,4
3505091,0.69,0.3,-0.68,0.87,-1.98,-0.17,37.46,17.58,34.58,4
3505102,0.69,0.3,-0.68,1.22,-2.2,-0.16,37.46,17.58,34.58,4
3505114,0.69,0.3,-0.67,1.86,-2.83,-0.33,37.46,17.58,34.58,4
3505126,0.69,0.3,-0.67,2.08,-2.95,-0.49,37.46,17.58,34.58,4
3505137,0.69,0.3,-0.66,2.2,-2.75,-0.61,37.47,17.61,34.5,4
3505149,0.69,0.3,-0.66,2.03,-2.26,-0.67,37.47,17.61,34.5,4
3505161,0.69,0.3,-0.66,1.89,-2.31,-0.64,37.47,17.61,34.5,4
3505171,0.69,0.3,-0.66,1.83,-2.45,-0.53,37.47,17.61,34.5,4
3505183,0.68,0.3,-0.66,2.4,-2.25,-0.27,37.48,17.65,34.66,4
3505195,0.68,0.3,-0.66,2.73,-1.89,-0.21,37.48,17.65,34.66,4
3505209,0.68,0.3,-0.65,2.57,-1.24,-0.41,37.48,17.65,34.66,4
3505220,0.68,0.3,-0.65,2.38,-1.02,-0.51,37.48,17.65,34.66,4
3505234,0.68,0.3,-0.66,2.42,-0.71,-0.33,37.45,17.63,34.79,4
3505244,0.69,0.29,-0.66,2.62,-0.66,-0.16,37.45,17.63,34.79,4
3505254,0.69,0.3,-0.66,2.89,-0.58,-0.14,37.45,17.63,34.79,4
3505265,0.69,0.3,-0.66,3.07,-0.48,-0.26,37.45,17.63,34.79,4
3505277,0.69,0.3,-0.66,2.84,-0.1,-0.52,37.45,17.63,34.79,4
3505288,0.69,0.3,-0.67,2.73,0.29,-0.53,37.5,17.53,34.92,4
3505299,0.69,0.3,-0.67,2.74,0.65,-0.55,37.5,17.53,34.92,4
3505311,0.69,0.3,-0.67,2.96,0.83,-0.68,37.5,17.53,34.92,4
3505323,0.69,0.3,-0.67,2.98,0.73,-0.79,37.5,17.53,34.92,4
3505334,0.69,0.3,-0.66,2.75,0.67,-0.91,37.48,17.57,34.97,4
3505346,0.69,0.29,-0.67,1.76,0.14,-0.83,37.48,17.57,34.97,4
3505356,0.69,0.29,-0.67,1.41,-0.27,-0.74,37.48,17.57,34.97,4
3505367,0.69,0.29,-0.67,1.38,-0.72,-0.63,37.48,17.57,34.97,4
3505378,0.69,0.29,-0.67,1.75,-1.49,-0.29,37.48,17.57,34.97,4
3505390,0.69,0.3,-0.67,1.8,-1.63,-0.12,37.37,17.64,35.05,4
3505402,0.69,0.3,-0.66,1.74,-1.54,-0.01,37.37,17.64,35.05,4
3505413,0.69,0.3,-0.67,1.66,-1.31,0.19,37.37,17.64,35.05,4
3505424,0.69,0.3,-0.67,1.72,-1.27,0.24,37.37,17.64,35.05,4
3505435,0.69,0.3,-0.67,1.98,-1.24,0.27,37.32,17.72,34.96,4
3505446,0.69,0.3,-0.66,2.32,-1.02,0.3,37.32,17.72,34.96,4
3505458,0.69,0.3,-0.66,2.71,-0.47,0.34,37.32,17.72,34.96,4
3505469,0.69,0.3,-0.66,2.73,-0.43,0.32,37.32,17.72,34.96,4
3505483,0.68,0.3,-0.66,2.63,-0.36,0.35,37.23,17.73,34.9,4
3505493,0.68,0.3,-0.66,2.71,-0.12,0.4,37.23,17.73,34.9,4
3505504,0.68,0.3,-0.66,2.8,0.26,0.49,37.23,17.73,34.9,4
3505517,0.68,0.3,-0.66,2.59,0.26,0.53,37.23,17.73,34.9,4
3505529,0.68,0.3,-0.66,2.33,-0.2,0.27,37.23,17.73,34.9,4
3505540,0.68,0.3,-0.66,1.99,-0.68,-0.0,37.18,17.75,35.19,4
3505552,0.68,0.3,-0.67,1.68,-1.19,-0.07,37.18,17.75,35.19,4
3505563,0.68,0.3,-0.66,1.81,-1.26,-0.04,37.18,17.75,35.19,4
3505576,0.68,0.3,-0.66,2.08,-1.12,-0.04,37.18,17.75,35.19,4
3505588,0.69,0.3,-0.66,1.82,-0.99,-0.04,37.08,17.75,35.14,4
3505599,0.68,0.3,-0.67,1.45,-1.01,-0.06,37.08,17.75,35.14,4
3505610,0.68,0.3,-0.67,1.3,-1.05,-0.1,37.08,17.75,35.14,4
3505621,0.68,0.3,-0.67,1.72,-1.02,-0.05,37.08,17.75,35.14,4
3505632,0.68,0.3,-0.67,2.08,-1.01,-0.06,37.2,17.82,35.26,4
3505645,0.68,0.3,-0.66,1.98,-1.04,-0.26,37.2,17.82,35.26,4
3505656,0.69,0.3,-0.66,1.58,-0.97,-0.36,37.2,17.82,35.26,4
3505667,0.69,0.3,-0.66,1.26,-0.91,-0.44,37.2,17.82,35.26,4
3505682,0.69,0.29,-0.67,1.01,-0.76,-0.23,37.2,17.83,35.33,4
3505694,0.68,0.29,-0.67,1.19,-0.68,-0.06,37.2,17.83,35.33,4
3505704,0.68,0.29,-0.66,1.55,-0.51,0.08,37.2,17.83,35.33,4
3505715,0.68,0.3,-0.66,1.89,-0.46,0.19,37.2,17.83,35.33,4
3505727,0.68,0.29,-0.66,1.62,-0.44,0.11,37.2,17.83,35.33,4
3505738,0.68,0.29,-0.66,1.13,-0.38,0.15,37.19,17.79,35.52,4
3505750,0.69,0.29,-0.67,0.68,-0.58,0.88,37.19,17.79,35.52,4
3505761,0.69,0.29,-0.67,0.91,-0.6,1.37,37.19,17.79,35.52,4
3505773,0.69,0.29,-0.67,1.61,-1.02,1.86,37.19,17.79,35.52,4
3505785,0.69,0.31,-0.67,1.69,-1.23,1.77,37.13,17.76,35.61,4
3505797,0.69,0.31,-0.67,1.42,-1.24,1.56,37.13,17.76,35.61,4
3505808,0.69,0.31,-0.67,0.67,-0.94,1.0,37.13,17.76,35.61,4
3505819,0.69,0.31,-0.68,0.71,-0.68,0.75,37.13,17.76,35.61,4
3505831,0.69,0.31,-0.68,1.04,-0.59,0.61,37.14,17.76,35.71,4
3505842,0.69,0.31,-0.68,2.13,-1.04,0.65,37.14,17.76,35.71,4
3505853,0.68,0.31,-0.67,2.59,-1.13,0.59,37.14,17.76,35.71,4
3505865,0.68,0.31,-0.67,2.8,-1.25,0.42,37.14,17.76,35.71,4
3505878,0.68,0.31,-0.66,1.93,-1.48,-0.31,37.14,17.76,35.71,4
3505890,0.68,0.31,-0.66,1.34,-1.53,-0.66,37.06,17.77,35.75,4
3505901,0.68,0.3,-0.67,1.12,-1.42,-0.82,37.06,17.77,35.75,4
3505913,0.68,0.29,-0.67,1.8,-1.09,-0.32,37.06,17.77,35.75,4
3505925,0.68,0.3,-0.66,2.43,-1.0,-0.02,37.06,17.77,35.75,4
3505937,0.68,0.3,-0.66,2.91,-0.68,0.21,37.03,17.7,35.68,4
3505948,0.68,0.3,-0.66,2.67,-0.44,0.06,37.03,17.7,35.68,4
3505959,0.68,0.3,-0.66,2.24,-0.33,-0.1,37.03,17.7,35.68,4
3505973,0.68,0.3,-0.67,2.06,-0.49,-0.35,37.03,17.7,35.68,4
3505984,0.68,0.29,-0.67,2.21,-0.7,-0.42,37.0,17.72,35.76,4
3505996,0.68,0.3,-0.66,2.2,-0.92,-0.44,37.0,17.72,35.76,4
3506008,0.68,0.3,-0.66,1.66,-0.96,-0.38,37.0,17.72,35.76,4
3506019,0.68,0.3,-0.67,1.14,-0.95,-0.28,37.0,17.72,35.76,4
3506034,0.68,0.3,-0.68,0.73,-1.49,-0.05,37.09,17.56,35.8,4
3506045,0.68,0.3,-0.68,1.2,-1.73,0.11,37.09,17.56,35.8,4
3506059,0.68,0.3,-0.68,2.5,-1.73,0.58,37.09,17.56,35.8,4
3506071,0.68,0.31,-0.67,2.76,-1.59,0.6,37.09,17.56,35.8,4
3506081,0.68,0.31,-0.67,2.62,-1.5,0.42,37.17,17.52,35.72,4
3506093,0.68,0.31,-0.67,1.64,-1.42,-0.18,37.17,17.52,35.72,4
3506105,0.68,0.3,-0.67,1.13,-1.4,-0.51,37.17,17.52,35.72,4
3506119,0.69,0.29,-0.67,0.75,-1.73,-0.8,37.17,17.52,35.72,4
3506129,0.69,0.29,-0.67,0.87,-1.93,-0.57,37.17,17.52,35.72,4
3506140,0.68,0.29,-0.67,1.15,-2.11,-0.2,37.19,17.62,35.7,4
3506150,0.68,0.29,-0.67,1.54,-2.17,0.17,37.19,17.62,35.7,4
3506161,0.68,0.3,-0.66,2.12,-1.91,0.57,37.19,17.62,35.7,4
3506173,0.68,0.3,-0.66,2.16,-1.72,0.55,37.19,17.62,35.7,4
3506184,0.68,0.3,-0.66,1.98,-1.54,0.35,37.18,17.78,35.62,4
3506196,0.68,0.3,-0.66,1.43,-1.35,-0.08,37.18,17.78,35.62,4
3506208,0.68,0.3,-0.66,1.28,-1.13,-0.12,37.18,17.78,35.62,4
3506218,0.68,0.3,-0.66,1.39,-0.88,0.0,37.18,17.78,35.62,4
3506232,0.68,0.3,-0.67,1.97,-0.54,0.29,37.16,17.9,35.63,4
3506243,0.68,0.3,-0.67,2.05,-0.56,0.35,37.16,17.9,35.63,4
3506254,0.68,0.3,-0.67,1.95,-0.74,0.31,37.16,17.9,35.63,4
3506265,0.69,0.31,-0.68,1.96,-0.85,0.29,37.16,17.9,35.63,4
3506277,0.69,0.31,-0.68,2.11,-0.85,0.27,37.16,17.9,35.63,4
3506289,0.69,0.31,-0.67,2.59,-0.83,0.04,37.08,17.87,35.77,4
3506300,0.69,0.3,-0.67,2.64,-0.78,-0.15,37.08,17.87,35.77,4
3506311,0.69,0.3,-0.67,2.58,-0.77,-0.29,37.08,17.87,35.77,4
3506325,0.68,0.3,-0.67,2.28,-0.8,-0.41,37.08,17.87,35.77,4
3506336,0.68,0.29,-0.67,2.22,-0.9,-0.31,37.25,17.71,35.87,4
3506349,0.68,0.29,-0.67,2.53,-0.99,-0.06,37.25,17.71,35.87,4
3506360,0.68,0.29,-0.66,2.61,-1.08,0.07,37.25,17.71,35.87,4
3506371,0.68,0.3,-0.66,2.48,-1.18,0.14,37.25,17.71,35.87,4
3506383,0.68,0.3,-0.66,1.66,-1.29,0.06,37.15,17.76,35.84,4
3506394,0.68,0.3,-0.66,1.36,-1.12,-0.02,37.15,17.76,35.84,4
3506406,0.68,0.3,-0.66,1.19,-0.87,-0.03,37.15,17.76,35.84,4
3506419,0.68,0.3,-0.67,1.22,-0.83,0.31,37.15,17.76,35.84,4
3506431,0.68,0.3,-0.67,1.43,-0.92,0.51,37.23,17.81,35.83,4
3506442,0.68,0.3,-0.67,1.7,-1.09,0.66,37.23,17.81,35.83,4
3506454,0.68,0.31,-0.67,1.7,-1.26,0.5,37.23,17.81,35.83,4
3506465,0.68,0.31,-0.67,1.49,-1.27,0.26,37.23,17.81,35.83,4
3506476,0.68,0.31,-0.67,1.19,-1.31,-0.07,37.23,17.81,35.83,4
3506489,0.69,0.31,-0.68,1.13,-1.28,-0.5,37.19,17.84,35.69,4
3506499,0.69,0.3,-0.68,1.62,-1.18,-0.47,37.19,17.84,35.69,4
3506510,0.68,0.3,-0.67,2.22,-1.07,-0.34,37.19,17.84,35.69,4
3506521,0.68,0.3,-0.67,2.94,-0.97,-0.13,37.19,17.84,35.69,4
3506533,0.68,0.31,-0.66,2.76,-1.01,-0.32,37.22,17.86,35.72,4
3506544,0.68,0.3,-0.66,2.4,-1.1,-0.61,37.22,17.86,35.72,4
3506556,0.68,0.3,-0.66,1.75,-1.12,-1.0,37.22,17.86,35.72,4
3506568,0.68,0.3,-0.66,1.75,-1.05,-0.92,37.22,17.86,35.72,4
3506582,0.68,0.29,-0.66,2.24,-0.85,-0.54,37.2,17.83,35.63,4
3506593,0.68,0.29,-0.66,2.47,-0.84,-0.32,37.2,17.83,35.63,4
3506605,0.68,0.29,-0.66,2.51,-0.77,-0.1,37.2,17.83,35.63,4
3506617,0.68,0.3,-0.66,2.44,-0.7,0.1,37.2,17.83,35.63,4
3506628,0.68,0.3,-0.67,2.28,-0.75,0.16,37.2,17.83,35.63,4
3506639,0.68,0.3,-0.67,2.11,-0.78,0.23,37.24,17.79,35.69,4
3506651,0.68,0.3,-0.67,2.33,-0.39,0.3,37.24,17.79,35.69,4
3506662,0.68,0.3,-0.67,2.49,-0.26,0.28,37.24,17.79,35.69,4
3506672,0.68,0.3,-0.67,2.5,-0.36,0.22,37.24,17.79,35.69,4
3506682,0.68,0.3,-0.67,2.48,-0.63,0.13,37.25,17.71,35.89,4
3506695,0.68,0.3,-0.67,2.3,-1.34,-0.08,37.25,17.71,35.89,4
3506705,0.68,0.3,-0.67,2.23,-1.57,-0.11,37.25,17.71,35.89,4
3506716,0.68,0.3,-0.67,2.34,-1.6,-0.09,37.25,17.71,35.89,4
3506727,0.68,0.3,-0.66,2.64,-1.19,0.09,37.25,17.71,35.89,4
3506739,0.68,0.3,-0.66,2.56,-1.04,0.14,37.21,17.67,35.91,4
3506750,0.68,0.3,-0.66,2.41,-0.96,0.14,37.21,17.67,35.91,4
3506763,0.68,0.3,-0.66,2.48,-0.82,0.18,37.21,17.67,35.91,4
3506773,0.68,0.3,-0.66,2.71,-0.74,0.2,37.21,17.67,35.91,4
3506784,0.68,0.3,-0.67,2.87,-0.66,0.26,37.16,17.76,35.88,4
3506797,0.68,0.3,-0.67,3.26,-0.56,0.68,37.16,17.76,35.88,4
3506809,0.68,0.3,-0.66,3.62,-0.53,0.7,37.16,17.76,35.88,4
3506820,0.68,0.3,-0.66,3.72,-0.6,0.68,37.16,17.76,35.88,4
3506833,0.68,0.3,-0.66,3.3,-1.34,0.3,37.13,17.7,35.85,4
3506844,0.68,0.3,-0.66,2.96,-1.41,0.46,37.13,17.7,35.85,4
3506858,0.68,0.3,-0.67,2.93,-0.95,0.83,37.13,17.7,35.85,4
3506870,0.68,0.3,-0.67,3.25,-0.88,0.97,37.13,17.7,35.85,4
3506881,0.68,0.3,-0.67,3.67,-0.84,1.17,37.13,17.66,35.58,4
3506891,0.68,0.3,-0.66,4.02,-0.9,1.34,37.13,17.66,35.58,4
3506903,0.68,0.3,-0.66,4.23,-1.0,1.3,37.13,17.66,35.58,4
3506916,0.68,0.31,-0.66,3.45,-1.05,1.2,37.13,17.66,35.58,4
3506927,0.67,0.31,-0.66,3.02,-1.1,0.94,37.13,17.66,35.58,4
3506937,0.68,0.31,-0.66,2.77,-1.15,0.62,36.99,17.6,35.8,4
3506950,0.68,0.3,-0.66,2.91,-0.71,0.48,36.99,17.6,35.8,4
3506961,0.68,0.3,-0.65,3.01,-0.39,0.48,36.99,17.6,35.8,4
3506972,0.68,0.29,-0.65,2.94,-0.24,0.7,36.99,17.6,35.8,4
3506985,0.68,0.29,-0.65,2.94,0.35,1.66,37.02,17.48,35.78,4
3506995,0.67,0.3,-0.65,3.17,0.99,1.9,37.02,17.48,35.78,4
3507007,0.67,0.31,-0.65,3.24,1.3,1.88,37.02,17.48,35.78,4
3507017,0.67,0.31,-0.66,3.1,1.17,1.81,37.02,17.48,35.78,4
3507027,0.67,0.31,-0.66,3.17,1.03,1.8,37.02,17.48,35.78,4
3507039,0.67,0.31,-0.66,3.35,1.37,1.82,36.93,17.39,35.83,4
3507051,0.67,0.32,-0.66,3.38,1.75,1.76,36.93,17.39,35.83,4
3507062,0.67,0.32,-0.67,2.72,1.78,1.01,36.93,17.39,35.83,4
3507072,0.68,0.33,-0.67,2.05,1.43,0.48,36.93,17.39,35.83,4
3507084,0.68,0.33,-0.68,1.34,1.17,0.09,36.97,17.31,35.85,4
3507096,0.69,0.32,-0.69,1.17,0.83,-0.28,36.97,17.31,35.85,4
3507107,0.69,0.32,-0.69,1.64,0.83,-0.19,36.97,17.31,35.85,4
3507118,0.69,0.32,-0.69,2.12,0.79,-0.09,36.97,17.31,35.85,4
3507129,0.69,0.32,-0.69,2.41,0.74,-0.21,36.93,17.29,35.93,4
3507141,0.68,0.32,-0.69,2.11,-0.04,-0.52,36.93,17.29,35.93,4
3507153,0.68,0.32,-0.69,1.92,-0.26,-0.76,36.93,17.29,35.93,4
3507166,0.68,0.31,-0.69,1.9,-0.97,-0.76,36.93,17.29,35.93,4
3507178,0.68,0.31,-0.69,2.18,-1.38,-0.66,36.93,17.29,35.93,4
3507189,0.68,0.31,-0.68,2.6,-1.69,-0.5,36.98,17.31,35.75,4
3507201,0.68,0.31,-0.67,3.26,-2.09,-0.35,36.98,17.31,35.75,4
3507213,0.68,0.31,-0.67,3.09,-2.22,-0.34,36.98,17.31,35.75,4
3507225,0.68,0.31,-0.66,1.78,-2.33,-0.5,36.98,17.31,35.75,4
3507237,0.68,0.31,-0.67,1.21,-2.28,-0.49,36.8,17.35,35.89,4
3507248,0.67,0.31,-0.67,1.09,-2.18,-0.32,36.8,17.35,35.89,4
3507261,0.67,0.31,-0.67,2.17,-1.99,0.05,36.8,17.35,35.89,4
3507272,0.67,0.31,-0.66,2.78,-1.97,0.19,36.8,17.35,35.89,4
3507283,0.67,0.31,-0.65,3.06,-1.77,0.2,36.86,17.44,35.86,4
3507294,0.67,0.31,-0.65,2.35,-1.09,-0.19,36.86,17.44,35.86,4
3507305,0.67,0.31,-0.65,1.71,-0.82,-0.5,36.86,17.44,35.86,4
3507316,0.68,0.31,-0.66,1.47,-0.55,-0.45,36.86,17.44,35.86,4
3507331,0.67,0.31,-0.67,3.38,0.69,0.7,36.88,17.38,36.2,4
3507342,0.67,0.31,-0.67,4.94,1.26,1.27,36.88,17.38,36.2,4
3507356,0.67,0.32,-0.66,7.15,1.63,1.9,36.88,17.38,36.2,4
3507367,0.67,0.33,-0.66,7.59,2.07,1.82,36.88,17.38,36.2,4
3507382,0.67,0.33,-0.66,7.36,3.08,1.13,36.71,17.33,36.17,4
3507393,0.67,0.33,-0.67,7.0,3.31,0.97,36.71,17.33,36.17,4
3507407,0.67,0.33,-0.67,7.85,4.22,1.3,36.71,17.33,36.17,4
3507418,0.67,0.33,-0.67,8.84,4.8,1.6,36.71,17.33,36.17,4
3507429,0.67,0.33,-0.67,9.7,5.3,1.83,36.64,17.24,36.07,4
3507441,0.66,0.33,-0.66,11.06,6.43,1.96,36.64,17.24,36.07,4
3507453,0.66,0.34,-0.66,11.1,6.9,1.82,36.64,17.24,36.07,4
3507464,0.66,0.34,-0.66,10.55,6.82,1.7,36.64,17.24,36.07,4
3507476,0.66,0.34,-0.67,9.01,6.18,0.99,36.64,17.24,36.07,4
3507487,0.66,0.34,-0.67,8.27,5.79,0.41,36.5,17.15,36.49,4
3507498,0.66,0.33,-0.67,7.51,5.33,-0.18,36.5,17.15,36.49,4
3507510,0.66,0.33,-0.67,5.81,4.08,-1.04,36.5,17.15,36.49,4
3507520,0.67,0.32,-0.67,4.91,3.11,-1.13,36.5,17.15,36.49,4
3507531,0.67,0.32,-0.68,4.34,2.29,-0.75,36.38,16.88,36.67,4
3507541,0.67,0.32,-0.68,4.61,2.12,-0.03,36.38,16.88,36.67,4
3507552,0.66,0.32,-0.69,7.62,4.18,1.28,36.38,16.88,36.67,4
3507562,0.66,0.32,-0.68,9.2,5.08,1.79,36.38,16.88,36.67,4
3507574,0.66,0.32,-0.68,9.88,5.37,2.18,36.38,16.88,36.67,4
3507586,0.66,0.33,-0.67,8.31,4.8,2.04,36.36,16.71,36.6,4
3507596,0.66,0.33,-0.67,6.55,4.23,1.39,36.36,16.71,36.6,4
3507608,0.66,0.34,-0.68,4.54,3.4,0.65,36.36,16.71,36.6,4
3507618,0.66,0.33,-0.68,2.74,2.37,0.08,36.36,16.71,36.6,4
3507629,0.66,0.33,-0.69,1.23,0.59,-0.51,36.25,16.49,36.84,4
3507641,0.66,0.33,-0.69,1.35,0.14,-0.52,36.25,16.49,36.84,4
3507651,0.66,0.33,-0.69,1.42,-0.27,-0.43,36.25,16.49,36.84,4
3507663,0.66,0.33,-0.68,0.63,-1.18,-0.27,36.25,16.49,36.84,4
3507674,0.66,0.33,-0.68,0.1,-1.47,-0.17,36.25,16.49,36.84,4
3507685,0.66,0.33,-0.69,-0.05,-1.55,0.14,36.12,16.4,36.95,4
3507698,0.66,0.33,-0.7,1.63,-0.84,1.25,36.12,16.4,36.95,4
3507708,0.65,0.34,-0.69,3.05,-0.41,1.76,36.12,16.4,36.95,4
3507720,0.65,0.34,-0.68,4.14,-0.15,1.98,36.12,16.4,36.95,4
3507732,0.65,0.35,-0.67,4.04,-0.1,1.61,36.01,16.28,37.24,4
3507743,0.65,0.35,-0.66,2.95,-0.18,1.05,36.01,16.28,37.24,4
3507754,0.65,0.35,-0.67,1.58,-0.37,0.48,36.01,16.28,37.24,4
3507768,0.65,0.34,-0.68,0.67,-0.21,0.03,36.01,16.28,37.24,4
3507778,0.65,0.33,-0.68,1.48,0.23,0.32,35.87,16.11,37.19,4
3507790,0.65,0.33,-0.68,2.63,0.54,0.76,35.87,16.11,37.19,4
3507802,0.65,0.34,-0.67,4.72,0.95,1.67,35.87,16.11,37.19,4
3507813,0.65,0.34,-0.67,5.28,1.36,1.92,35.87,16.11,37.19,4
3507824,0.65,0.34,-0.66,5.15,1.73,1.87,35.87,16.11,37.19,4
3507837,0.65,0.35,-0.67,3.52,1.95,1.15,35.86,15.99,37.05,4
3507849,0.65,0.34,-0.67,2.57,2.12,0.72,35.86,15.99,37.05,4
3507862,0.65,0.34,-0.69,2.2,2.77,0.95,35.86,15.99,37.05,4
3507873,0.65,0.34,-0.69,3.03,3.18,1.34,35.86,15.99,37.05,4
3507884,0.64,0.34,-0.69,4.07,3.53,1.58,35.66,15.88,37.04,4
3507895,0.64,0.35,-0.69,4.55,3.14,1.33,35.66,15.88,37.04,4
3507906,0.64,0.35,-0.68,3.66,2.53,0.85,35.66,15.88,37.04,4
3507917,0.64,0.35,-0.67,2.08,1.71,0.23,35.66,15.88,37.04,4
3507931,0.65,0.35,-0.67,-2.09,0.66,-0.82,35.59,15.78,37.03,4
3507943,0.65,0.34,-0.68,-3.89,0.84,-1.03,35.59,15.78,37.03,4
3507957,0.65,0.33,-0.71,-3.84,2.19,0.12,35.59,15.78,37.03,4
3507967,0.64,0.33,-0.71,-1.71,2.81,0.91,35.59,15.78,37.03,4
3507979,0.64,0.33,-0.7,0.75,3.04,1.45,35.55,15.78,37.22,4
3507991,0.63,0.34,-0.68,2.91,2.42,1.7,35.55,15.78,37.22,4
3508002,0.63,0.35,-0.67,2.24,2.17,1.31,35.55,15.78,37.22,4
3508012,0.64,0.35,-0.67,0.86,2.07,0.73,35.55,15.78,37.22,4
3508025,0.64,0.33,-0.68,-1.83,2.29,0.33,35.55,15.78,37.22,4
3508036,0.64,0.33,-0.69,-1.98,2.59,0.67,35.31,15.72,37.36,4
3508046,0.64,0.33,-0.69,-1.25,2.75,1.24,35.31,15.72,37.36,4
3508058,0.63,0.33,-0.69,1.0,3.2,2.67,35.31,15.72,37.36,4
3508069,0.63,0.34,-0.68,1.72,3.6,2.86,35.31,15.72,37.36,4
3508079,0.63,0.34,-0.68,1.81,4.09,2.64,35.23,15.67,37.5,4
3508091,0.63,0.34,-0.68,1.45,4.97,1.8,35.23,15.67,37.5,4
3508102,0.63,0.34,-0.69,0.47,4.76,0.89,35.23,15.67,37.5,4
3508114,0.63,0.33,-0.7,0.55,4.77,1.18,35.23,15.67,37.5,4
3508124,0.63,0.33,-0.7,1.44,5.11,1.67,35.23,15.67,37.5,4
3508137,0.63,0.34,-0.7,3.82,5.68,2.76,35.08,15.78,37.71,4
3508148,0.63,0.34,-0.7,4.12,5.37,3.08,35.08,15.78,37.71,4
3508159,0.63,0.34,-0.69,3.64,4.93,2.89,35.08,15.78,37.71,4
3508171,0.63,0.34,-0.69,0.95,3.42,2.19,35.08,15.78,37.71,4
3508182,0.63,0.34,-0.69,-1.1,2.72,1.87,34.87,15.86,37.7,4
3508193,0.63,0.34,-0.7,-3.03,2.08,1.56,34.87,15.86,37.7,4
3508204,0.63,0.34,-0.71,-5.23,0.94,1.07,34.87,15.86,37.7,4
3508215,0.62,0.34,-0.72,-5.54,0.17,0.74,34.87,15.86,37.7,4
3508225,0.62,0.34,-0.71,-5.7,-0.73,0.24,34.87,15.86,37.7,4
3508235,0.63,0.34,-0.71,-6.06,-1.63,-0.18,34.77,15.84,37.56,4
3508249,0.63,0.34,-0.71,-7.06,-2.14,-0.34,34.77,15.84,37.56,4
3508261,0.63,0.34,-0.71,-7.21,-1.45,-0.21,34.77,15.84,37.56,4
3508271,0.63,0.34,-0.72,-7.25,-0.57,-0.28,34.77,15.84,37.56,4
3508284,0.63,0.34,-0.73,-7.35,-0.34,-0.59,34.72,16.0,37.81,4
3508294,0.62,0.34,-0.74,-6.91,-0.99,-0.45,34.72,16.0,37.81,4
3508304,0.62,0.34,-0.74,-5.79,-1.53,-0.31,34.72,16.0,37.81,4
3508314,0.62,0.34,-0.74,-3.92,-1.76,-0.04,34.72,16.0,37.81,4
3508326,0.62,0.34,-0.72,0.02,-0.82,-0.01,34.72,16.0,37.81,4
3508336,0.62,0.34,-0.71,1.03,-0.55,-0.1,34.69,16.1,37.68,4
3508348,0.62,0.34,-0.71,1.04,-0.78,-0.14,34.69,16.1,37.68,4
3508359,0.62,0.34,-0.71,-0.41,-1.7,-0.39,34.69,16.1,37.68,4
3508370,0.62,0.33,-0.72,-0.79,-2.02,-0.53,34.69,16.1,37.68,4
3508381,0.62,0.33,-0.72,-0.71,-2.18,-0.55,34.72,16.21,37.65,4
3508391,0.62,0.33,-0.72,-0.35,-2.13,-0.69,34.72,16.21,37.65,4
3508402,0.62,0.33,-0.72,0.26,-2.69,-0.78,34.72,16.21,37.65,4
3508413,0.63,0.32,-0.71,0.19,-3.06,-0.38,34.72,16.21,37.65,4
3508423,0.63,0.32,-0.71,0.2,-3.11,-0.03,34.72,16.21,37.65,4
3508433,0.63,0.32,-0.71,0.32,-3.06,0.25,34.66,16.32,37.55,4
3508444,0.63,0.32,-0.71,0.4,-2.45,0.21,34.66,16.32,37.55,4
3508455,0.63,0.33,-0.71,0.31,-2.41,0.09,34.66,16.32,37.55,4
3508466,0.63,0.33,-0.71,0.07,-2.66,0.1,34.66,16.32,37.55,4
3508477,0.62,0.33,-0.71,-0.32,-2.96,0.09,34.65,16.47,37.51,4
3508489,0.62,0.33,-0.71,-1.04,-3.1,-0.53,34.65,16.47,37.51,4
3508501,0.63,0.33,-0.71,-1.2,-3.11,-0.8,34.65,16.47,37.51,4
3508514,0.63,0.33,-0.71,-1.17,-3.37,-0.56,34.65,16.47,37.51,4
3508527,0.63,0.33,-0.71,-0.75,-3.19,-0.38,34.68,16.55,37.65,4
3508541,0.63,0.33,-0.71,0.65,-2.43,-0.43,34.68,16.55,37.65,4
3508551,0.63,0.33,-0.71,1.2,-2.03,-0.63,34.68,16.55,37.65,4
3508561,0.63,0.33,-0.71,1.47,-1.9,-0.49,34.68,16.55,37.65,4
3508573,0.63,0.33,-0.71,1.73,-1.7,0.15,34.68,16.55,37.65,4
3508585,0.62,0.33,-0.71,2.13,-1.65,0.26,34.56,16.7,37.44,4
3508595,0.62,0.34,-0.7,2.49,-1.61,0.11,34.56,16.7,37.44,4
3508606,0.62,0.34,-0.7,2.66,-1.54,-0.21,34.56,16.7,37.44,4
3508618,0.62,0.34,-0.7,1.89,-1.54,-0.94,34.56,16.7,37.44,4
3508629,0.62,0.33,-0.7,1.32,-1.63,-1.28,34.62,16.84,37.31,4
3508640,0.62,0.33,-0.7,0.95,-1.7,-1.55,34.62,16.84,37.31,4
3508652,0.63,0.32,-0.71,1.03,-1.59,-1.62,34.62,16.84,37.31,4
3508664,0.63,0.32,-0.71,1.65,-1.16,-1.27,34.62,16.84,37.31,4
3508677,0.63,0.32,-0.71,3.09,-0.24,-0.68,34.57,16.91,37.25,4
3508688,0.63,0.32,-0.71,3.41,-0.18,-0.54,34.57,16.91,37.25,4
3508700,0.63,0.31,-0.71,3.75,-0.12,-0.44,34.57,16.91,37.25,4
3508711,0.63,0.31,-0.71,5.75,1.23,0.08,34.57,16.91,37.25,4
3508722,0.63,0.31,-0.7,6.95,2.25,0.36,34.57,16.91,37.25,4
3508732,0.63,0.31,-0.7,7.42,2.7,0.58,34.59,16.86,37.38,4
3508744,0.64,0.31,-0.7,7.1,2.48,0.72,34.59,16.86,37.38,4
3508755,0.64,0.32,-0.71,6.38,2.09,1.24,34.59,16.86,37.38,4
3508767,0.64,0.32,-0.71,7.06,2.58,1.76,34.59,16.86,37.38,4
3508777,0.63,0.32,-0.71,8.29,3.28,2.39,34.53,16.78,37.62,4
3508789,0.62,0.33,-0.71,10.45,4.24,3.13,34.53,16.78,37.62,4
3508800,0.62,0.33,-0.7,10.5,4.24,3.2,34.53,16.78,37.62,4
3508812,0.62,0.34,-0.69,9.77,4.06,2.98,34.53,16.78,37.62,4
3508824,0.61,0.34,-0.7,7.21,3.41,2.02,34.53,16.78,37.62,4
3508834,0.61,0.34,-0.7,5.94,3.08,1.43,34.44,16.57,37.56,4
3508846,0.61,0.34,-0.71,4.89,2.64,0.83,34.44,16.57,37.56,4
3508856,0.61,0.34,-0.71,3.34,1.39,0.2,34.44,16.57,37.56,4
3508867,0.62,0.34,-0.72,3.2,1.08,0.33,34.44,16.57,37.56,4
3508878,0.62,0.34,-0.72,3.42,1.13,0.57,34.37,16.41,37.59,4
3508888,0.62,0.34,-0.72,3.68,1.12,0.74,34.37,16.41,37.59,4
3508901,0.61,0.35,-0.71,2.87,0.37,0.4,34.37,16.41,37.59,4
3508911,0.61,0.35,-0.71,1.83,-0.28,-0.12,34.37,16.41,37.59,4
3508922,0.61,0.35,-0.71,0.62,-0.93,-0.66,34.37,16.41,37.59,4
3508934,0.62,0.35,-0.71,-1.28,-1.79,-1.43,34.35,16.38,37.53,4
3508945,0.62,0.34,-0.72,-1.89,-2.02,-1.64,34.35,16.38,37.53,4
3508956,0.62,0.33,-0.72,-2.41,-2.34,-1.77,34.35,16.38,37.53,4
3508970,0.62,0.33,-0.72,-3.32,-3.58,-1.28,34.35,16.38,37.53,4
3508981,0.62,0.32,-0.73,-3.14,-3.56,-0.87,34.31,16.35,37.48,4
3508993,0.62,0.32,-0.73,-2.2,-3.27,-0.57,34.31,16.35,37.48,4
3509005,0.62,0.32,-0.72,-0.12,-2.94,0.33,34.31,16.35,37.48,4
3509016,0.62,0.32,-0.72,0.59,-3.01,0.72,34.31,16.35,37.48,4
3509027,0.63,0.32,-0.71,1.12,-2.98,0.99,34.21,16.37,37.58,4
3509039,0.63,0.33,-0.7,1.46,-2.32,1.18,34.21,16.37,37.58,4
3509050,0.63,0.32,-0.7,1.22,-2.05,1.18,34.21,16.37,37.58,4
3509063,0.63,0.32,-0.7,1.07,-1.72,1.41,34.21,16.37,37.58,4
3509073,0.63,0.32,-0.71,1.39,-1.41,1.61,34.21,16.37,37.58,4
3509084,0.62,0.32,-0.71,2.0,-0.95,1.94,34.23,16.29,37.64,4
3509096,0.62,0.33,-0.7,2.82,-0.12,2.11,34.23,16.29,37.64,4
3509107,0.62,0.34,-0.69,4.06,1.0,1.81,34.23,16.29,37.64,4
3509119,0.62,0.34,-0.69,3.61,0.74,1.8,34.23,16.29,37.64,4
3509129,0.62,0.34,-0.69,2.68,0.47,1.73,34.19,16.36,37.53,4
3509140,0.61,0.34,-0.7,2.13,0.59,1.4,34.19,16.36,37.53,4
3509151,0.61,0.34,-0.7,2.6,0.93,1.31,34.19,16.36,37.53,4
3509162,0.61,0.34,-0.7,3.13,1.2,1.37,34.19,16.36,37.53,4
3509172,0.61,0.34,-0.7,3.49,1.47,1.4,34.19,16.36,37.53,4
3509184,0.61,0.34,-0.7,3.34,1.98,1.23,34.11,16.25,37.57,4
3509196,0.61,0.35,-0.71,3.02,2.25,1.06,34.11,16.25,37.57,4
3509207,0.61,0.35,-0.72,2.86,2.5,0.92,34.11,16.25,37.57,4
3509219,0.61,0.34,-0.72,3.27,2.87,0.57,34.11,16.25,37.57,4
3509229,0.61,0.34,-0.72,3.36,2.75,0.33,34.02,16.25,37.7,4
3509241,0.61,0.35,-0.72,3.14,2.37,0.08,34.02,16.25,37.7,4
3509251,0.61,0.35,-0.73,2.73,1.66,0.11,34.02,16.25,37.7,4
3509262,0.61,0.35,-0.74,3.52,2.0,0.36,34.02,16.25,37.7,4
3509273,0.61,0.35,-0.74,4.91,2.61,0.51,34.02,16.25,37.7,4
3509284,0.61,0.35,-0.73,6.12,3.01,0.58,34.0,16.24,37.71,4
3509295,0.61,0.35,-0.73,5.91,2.59,0.15,34.0,16.24,37.71,4
3509305,0.61,0.35,-0.72,4.94,1.91,-0.25,34.0,16.24,37.71,4
3509317,0.61,0.35,-0.72,3.93,1.15,-0.62,34.0,16.24,37.71,4
3509328,0.61,0.34,-0.72,3.09,0.48,-0.97,33.91,16.22,37.88,4
3509339,0.61,0.34,-0.72,1.93,-0.84,-1.46,33.91,16.22,37.88,4
3509351,0.61,0.34,-0.72,1.54,-1.28,-1.58,33.91,16.22,37.88,4
3509363,0.61,0.34,-0.71,0.88,-1.69,-1.54,33.91,16.22,37.88,4
3509374,0.61,0.33,-0.71,0.45,-1.96,-1.43,33.91,16.22,37.88,4
3509385,0.61,0.33,-0.71,0.06,-2.38,-1.34,33.9,16.16,38.13,4
3509398,0.61,0.33,-0.71,-0.42,-2.64,-0.91,33.9,16.16,38.13,4
3509409,0.61,0.33,-0.72,0.17,-2.11,-0.54,33.9,16.16,38.13,4
3509420,0.61,0.34,-0.72,1.23,-1.39,-0.26,33.9,16.16,38.13,4
3509432,0.61,0.34,-0.72,2.59,-0.85,-0.14,33.77,16.23,38.14,4
3509443,0.62,0.34,-0.71,2.4,-0.95,-0.17,33.77,16.23,38.14,4
3509454,0.62,0.34,-0.71,2.13,-0.81,-0.12,33.77,16.23,38.14,4
3509467,0.62,0.34,-0.72,2.45,-0.03,0.05,33.77,16.23,38.14,4
3509478,0.62,0.34,-0.72,2.77,-0.02,-0.02,33.82,16.25,38.07,4
3509490,0.62,0.34,-0.72,2.84,-0.38,-0.2,33.82,16.25,38.07,4
3509501,0.62,0.34,-0.72,2.42,-0.87,-0.54,33.82,16.25,38.07,4
3509512,0.61,0.34,-0.71,2.21,-0.78,-0.71,33.82,16.25,38.07,4
3509522,0.61,0.34,-0.71,2.1,-0.58,-0.86,33.82,16.25,38.07,4
3509532,0.61,0.34,-0.71,2.0,-0.44,-0.98,33.85,16.17,38.18,4
3509543,0.61,0.33,-0.71,1.44,-0.56,-0.96,33.85,16.17,38.18,4
3509554,0.61,0.33,-0.72,1.31,-0.63,-0.68,33.85,16.17,38.18,4
3509566,0.61,0.33,-0.72,1.55,-0.54,-0.29,33.85,16.17,38.18,4
3509577,0.61,0.33,-0.72,2.03,-0.49,0.07,33.84,16.09,38.16,4
3509588,0.61,0.33,-0.71,2.47,-0.73,0.42,33.84,16.09,38.16,4
3509600,0.61,0.33,-0.71,1.9,-0.99,0.42,33.84,16.09,38.16,4
3509612,0.61,0.34,-0.71,0.81,-1.28,0.59,33.84,16.09,38.16,4
3509623,0.61,0.33,-0.72,1.1,-0.9,0.77,33.84,16.09,38.16,4
3509634,0.61,0.33,-0.72,1.76,-0.6,0.94,33.9,16.01,38.34,4
3509645,0.61,0.34,-0.72,2.26,-0.64,1.03,33.9,16.01,38.34,4
3509657,0.61,0.34,-0.71,2.05,-1.16,1.11,33.9,16.01,38.34,4
3509668,0.61,0.35,-0.72,1.59,-1.27,1.1,33.9,16.01,38.34,4
3509679,0.61,0.35,-0.72,1.33,-1.13,1.07,33.85,15.97,38.17,4
3509691,0.6,0.34,-0.73,1.81,-0.64,0.79,33.85,15.97,38.17,4
3509702,0.6,0.34,-0.72,2.1,-0.81,0.55,33.85,15.97,38.17,4
3509714,0.61,0.34,-0.72,2.11,-1.21,0.33,33.85,15.97,38.17,4
3509727,0.61,0.34,-0.72,1.36,-1.66,0.27,33.81,15.99,38.07,4
3509738,0.61,0.34,-0.72,1.26,-1.4,0.42,33.81,15.99,38.07,4
3509751,0.6,0.34,-0.72,1.96,-0.95,0.56,33.81,15.99,38.07,4
3509763,0.6,0.34,-0.71,2.19,-1.17,0.55,33.81,15.99,38.07,4
3509773,0.6,0.34,-0.71,2.16,-1.33,0.51,33.81,15.99,38.07,4
3509785,0.6,0.35,-0.71,1.44,-1.18,0.46,33.76,15.96,38.06,4
3509797,0.6,0.35,-0.72,1.29,-0.75,0.4,33.76,15.96,38.06,4
3509807,0.6,0.35,-0.72,1.45,-0.33,0.35,33.76,15.96,38.06,4
3509820,0.61,0.34,-0.73,1.96,-0.59,0.29,33.76,15.96,38.06,4
3509831,0.61,0.35,-0.73,2.16,-0.91,0.28,33.7,15.96,38.02,4
3509841,0.61,0.35,-0.72,2.3,-1.0,0.26,33.7,15.96,38.02,4
3509853,0.61,0.35,-0.72,2.13,-0.87,-0.0,33.7,15.96,38.02,4
3509864,0.61,0.34,-0.72,1.85,-0.94,-0.14,33.7,15.96,38.02,4
3509876,0.61,0.34,-0.72,1.57,-1.09,-0.28,33.67,15.98,38.14,4
3509887,0.61,0.34,-0.72,1.54,-1.36,-0.38,33.67,15.98,38.14,4
3509898,0.61,0.33,-0.72,1.51,-1.45,-0.28,33.67,15.98,38.14,4
3509909,0.61,0.33,-0.72,1.5,-1.51,-0.11,33.67,15.98,38.14,4
3509923,0.61,0.34,-0.72,1.38,-1.55,0.4,33.67,15.98,38.14,4
3509934,0.61,0.34,-0.72,1.4,-1.49,0.53,33.73,16.14,38.06,4
3509944,0.61,0.34,-0.72,1.45,-1.43,0.53,33.73,16.14,38.06,4
3509956,0.61,0.34,-0.71,1.41,-1.19,0.56,33.73,16.14,38.06,4
3509967,0.61,0.34,-0.72,1.41,-1.02,0.52,33.73,16.14,38.06,4
3509978,0.61,0.34,-0.72,1.33,-0.95,0.46,33.78,16.2,37.87,4
3509990,0.61,0.34,-0.72,1.15,-1.33,0.41,33.78,16.2,37.87,4
3510001,0.61,0.35,-0.72,1.35,-1.36,0.38,33.78,16.2,37.87,4
3510011,0.61,0.35,-0.72,1.74,-1.19,0.29,33.78,16.2,37.87,4
3510022,0.61,0.35,-0.72,2.04,-0.97,0.09,33.78,16.2,37.87,4
3510035,0.6,0.35,-0.71,1.84,-0.79,-0.47,33.87,16.14,37.67,4
3510045,0.6,0.35,-0.71,1.5,-0.77,-0.8,33.87,16.14,37.67,4
3510055,0.6,0.35,-0.71,1.29,-0.72,-1.05,33.87,16.14,37.67,4
3510066,0.6,0.34,-0.71,1.3,-0.55,-1.14,33.87,16.14,37.67,4
3510079,0.6,0.33,-0.71,1.75,-0.14,-0.95,33.86,16.1,37.81,4
3510091,0.6,0.33,-0.71,1.85,-0.15,-0.85,33.86,16.1,37.81,4
3510104,0.6,0.34,-0.72,1.49,-0.22,-0.61,33.86,16.1,37.81,4
3510115,0.6,0.34,-0.72,1.47,-0.13,-0.41,33.86,16.1,37.81,4
3510127,0.6,0.34,-0.73,1.95,-0.19,-0.31,33.93,16.02,37.92,4
3510138,0.61,0.34,-0.73,2.07,-0.45,-0.37,33.93,16.02,37.92,4
3510150,0.61,0.34,-0.72,1.95,-0.67,-0.39,33.93,16.02,37.92,4
3510164,0.61,0.34,-0.72,1.37,-1.17,-0.27,33.93,16.02,37.92,4
3510175,0.61,0.34,-0.72,1.0,-1.1,-0.36,33.88,16.01,38.01,4
3510185,0.61,0.34,-0.73,0.89,-1.03,-0.44,33.88,16.01,38.01,4
3510195,0.61,0.34,-0.73,1.03,-1.01,-0.32,33.88,16.01,38.01,4
3510206,0.61,0.34,-0.73,1.83,-1.21,0.05,33.88,16.01,38.01,4
3510218,0.61,0.34,-0.73,2.21,-1.36,0.24,33.88,16.01,38.01,4
3510229,0.61,0.34,-0.72,2.39,-1.44,0.39,33.83,16.03,37.86,4
3510241,0.61,0.34,-0.72,2.26,-1.24,0.44,33.83,16.03,37.86,4
3510252,0.61,0.34,-0.72,1.95,-1.19,0.31,33.83,16.03,37.86,4
3510264,0.61,0.34,-0.72,1.7,-1.24,0.16,33.83,16.03,37.86,4
3510276,0.61,0.34,-0.72,1.52,-1.25,0.01,33.81,16.02,37.76,4
3510288,0.61,0.34,-0.72,1.6,-1.16,0.06,33.81,16.02,37.76,4
3510298,0.61,0.34,-0.72,1.73,-1.11,0.11,33.81,16.02,37.76,4
3510309,0.61,0.34,-0.72,1.93,-1.4,0.24,33.81,16.02,37.76,4
3510321,0.61,0.34,-0.72,1.86,-1.59,0.31,33.81,16.02,37.76,4
3510332,0.61,0.34,-0.72,1.7,-1.73,0.43,33.69,15.96,38.03,4
3510342,0.61,0.34,-0.72,1.3,-1.86,0.51,33.69,15.96,38.03,4
3510353,0.61,0.34,-0.72,1.19,-1.89,0.48,33.69,15.96,38.03,4
3510365,0.61,0.34,-0.72,1.28,-1.81,0.55,33.69,15.96,38.03,4
3510376,0.61,0.34,-0.72,1.64,-1.49,0.63,33.68,16.0,38.01,4
3510387,0.61,0.34,-0.72,2.3,-1.08,0.62,33.68,16.0,38.01,4
3510399,0.61,0.34,-0.72,2.2,-1.15,0.66,33.68,16.0,38.01,4
3510411,0.61,0.34,-0.72,1.9,-1.25,0.66,33.68,16.0,38.01,4
3510422,0.6,0.34,-0.73,1.89,-1.26,0.63,33.68,16.0,38.01,4
3510433,0.6,0.34,-0.73,2.15,-1.32,0.49,33.66,16.04,38.02,4
3510445,0.61,0.34,-0.73,2.71,-1.42,0.46,33.66,16.04,38.02,4
3510456,0.61,0.34,-0.72,2.72,-1.46,0.46,33.66,16.04,38.02,4
3510466,0.6,0.35,-0.72,2.82,-1.46,0.31,33.66,16.04,38.02,4
3510476,0.6,0.35,-0.72,2.83,-1.66,0.22,33.64,16.06,38.08,4
3510490,0.6,0.34,-0.71,1.68,-2.19,-0.15,33.64,16.06,38.08,4
3510500,0.61,0.34,-0.72,1.06,-2.46,-0.33,33.64,16.06,38.08,4
3510510,0.61,0.34,-0.72,0.8,-2.47,-0.37,33.64,16.06,38.08,4
3510520,0.6,0.34,-0.72,0.79,-2.33,-0.26,33.64,16.06,38.08,4
3510533,0.6,0.34,-0.72,1.11,-2.35,0.14,33.66,16.04,37.98,4
3510544,0.6,0.34,-0.71,1.27,-2.27,0.21,33.66,16.04,37.98,4
3510556,0.6,0.34,-0.71,1.33,-2.04,0.22,33.66,16.04,37.98,4
3510568,0.6,0.34,-0.71,1.46,-1.61,0.33,33.66,16.04,37.98,4
3510578,0.6,0.34,-0.71,1.67,-1.3,0.27,33.65,16.01,38.14,4
3510590,0.6,0.34,-0.71,1.84,-1.12,0.13,33.65,16.01,38.14,4
3510602,0.61,0.34,-0.71,1.83,-0.93,0.15,33.65,16.01,38.14,4
3510612,0.61,0.34,-0.71,1.91,-0.75,0.16,33.65,16.01,38.14,4
3510622,0.61,0.34,-0.72,2.03,-0.6,0.13,33.65,16.01,38.14,4
3510632,0.61,0.34,-0.72,2.15,-0.55,0.09,33.58,16.02,38.08,4
3510644,0.61,0.35,-0.72,2.13,-0.41,-0.02,33.58,16.02,38.08,4
3510656,0.6,0.35,-0.72,2.13,-0.4,-0.04,33.58,16.02,38.08,4
3510668,0.6,0.35,-0.72,2.09,-0.61,-0.41,33.58,16.02,38.08,4
3510680,0.6,0.35,-0.71,1.79,-0.73,-0.71,33.55,16.03,38.13,4
3510692,0.61,0.35,-0.71,1.3,-0.74,-0.89,33.55,16.03,38.13,4
3510703,0.61,0.34,-0.72,1.07,-0.29,-0.76,33.55,16.03,38.13,4
3510714,0.61,0.34,-0.73,1.51,-0.08,-0.68,33.55,16.03,38.13,4
3510725,0.61,0.34,-0.72,1.96,-0.12,-0.67,33.5,16.07,38.22,4
3510735,0.61,0.34,-0.72,2.2,-0.32,-0.63,33.5,16.07,38.22,4
3510746,0.61,0.34,-0.72,2.02,-0.3,-0.35,33.5,16.07,38.22,4
3510756,0.61,0.34,-0.72,1.86,-0.12,-0.16,33.5,16.07,38.22,4
3510768,0.61,0.34,-0.73,1.81,0.03,-0.02,33.5,16.07,38.22,4
3510780,0.61,0.34,-0.73,2.01,-0.24,0.19,33.57,16.04,38.14,4
3510791,0.61,0.34,-0.73,1.96,-0.66,0.17,33.57,16.04,38.14,4
3510802,0.61,0.34,-0.72,1.65,-1.14,0.11,33.57,16.04,38.14,4
3510816,0.61,0.34,-0.72,0.96,-1.9,-0.14,33.57,16.04,38.14,4
3510827,0.61,0.34,-0.72,0.79,-2.0,-0.26,33.54,16.02,38.28,4
3510838,0.61,0.34,-0.72,0.84,-2.02,-0.3,33.54,16.02,38.28,4
3510851,0.61,0.33,-0.71,0.84,-1.92,-0.23,33.54,16.02,38.28,4
3510862,0.61,0.33,-0.71,0.76,-1.71,0.04,33.54,16.02,38.28,4
3510876,0.61,0.34,-0.72,1.29,-0.89,0.79,33.52,16.04,38.18,4
3510887,0.6,0.34,-0.72,1.76,-0.6,1.11,33.52,16.04,38.18,4
3510898,0.6,0.34,-0.72,2.13,-0.48,1.23,33.52,16.04,38.18,4
3510910,0.6,0.35,-0.72,2.25,-0.59,0.84,33.52,16.04,38.18,4
3510922,0.6,0.35,-0.72,1.83,-0.76,0.45,33.52,16.04,38.18,4
3510933,0.61,0.35,-0.72,1.37,-0.9,0.1,33.57,16.07,38.19,4
3510945,0.61,0.35,-0.73,1.45,-0.71,-0.47,33.57,16.07,38.19,4
3510956,0.61,0.35,-0.73,1.86,-0.61,-0.57,33.57,16.07,38.19,4
3510967,0.61,0.34,-0.73,2.19,-0.62,-0.62,33.57,16.07,38.19,4
3510980,0.61,0.34,-0.72,2.57,-0.65,-0.45,33.62,16.1,38.12,4
3510990,0.61,0.34,-0.72,2.69,-0.56,-0.34,33.62,16.1,38.12,4
3511000,0.6,0.34,-0.72,2.76,-0.46,-0.29,33.62,16.1,38.12,4
3511010,0.6,0.34,-0.72,2.77,-0.43,-0.24,33.62,16.1,38.12,4
3511021,0.6,0.34,-0.72,2.75,-0.22,-0.35,33.62,16.1,38.12,4
3511033,0.6,0.34,-0.72,2.66,-0.09,-0.41,33.6,16.12,38.2,4
3511043,0.6,0.34,-0.72,2.27,-0.21,-0.47,33.6,16.12,38.2,4
3511053,0.6,0.34,-0.72,1.8,-0.52,-0.47,33.6,16.12,38.2,4
3511064,0.6,0.33,-0.72,1.17,-1.13,-0.42,33.6,16.12,38.2,4
3511076,0.61,0.33,-0.72,1.09,-1.34,-0.32,33.67,16.17,38.29,4
3511086,0.61,0.33,-0.73,1.1,-1.53,-0.09,33.67,16.17,38.29,4
3511096,0.61,0.33,-0.73,1.24,-1.61,0.17,33.67,16.17,38.29,4
3511107,0.61,0.33,-0.73,1.93,-1.65,0.6,33.67,16.17,38.29,4
3511118,0.61,0.34,-0.73,2.03,-1.77,0.8,33.67,16.17,38.29,4
3511129,0.61,0.34,-0.73,2.0,-1.87,1.04,33.78,16.25,38.55,4
3511141,0.61,0.34,-0.73,2.08,-1.66,1.1,33.78,16.25,38.55,4
3511152,0.6,0.34,-0.72,2.04,-1.71,0.99,33.78,16.25,38.55,4
3511163,0.6,0.34,-0.72,2.03,-1.86,0.89,33.78,16.25,38.55,4
3511175,0.6,0.35,-0.72,2.09,-1.84,0.67,33.65,16.32,38.53,4
3511186,0.61,0.34,-0.72,1.92,-1.88,0.61,33.65,16.32,38.53,4
3511198,0.6,0.34,-0.72,1.61,-1.95,0.59,33.65,16.32,38.53,4
3511208,0.6,0.34,-0.72,1.46,-2.0,0.64,33.65,16.32,38.53,4
3511220,0.6,0.35,-0.72,1.7,-1.92,0.66,33.65,16.32,38.53,4
3511231,0.6,0.35,-0.72,1.74,-2.01,0.54,33.63,16.23,38.47,4
3511241,0.6,0.35,-0.72,1.67,-2.08,0.38,33.63,16.23,38.47,4
3511251,0.6,0.35,-0.72,1.49,-2.04,0.23,33.63,16.23,38.47,4
3511263,0.61,0.34,-0.72,1.27,-1.92,0.03,33.63,16.23,38.47,4
3511274,0.61,0.34,-0.72,1.36,-1.86,0.02,33.65,16.23,38.5,4
3511284,0.61,0.34,-0.72,1.6,-1.75,0.06,33.65,16.23,38.5,4
3511294,0.61,0.34,-0.72,1.87,-1.54,0.14,33.65,16.23,38.5,4
3511306,0.61,0.34,-0.72,2.08,-1.42,0.25,33.65,16.23,38.5,4
3511317,0.61,0.34,-0.72,1.99,-1.54,0.25,33.65,16.23,38.5,4
3511328,0.61,0.34,-0.72,1.92,-1.6,0.29,33.65,16.25,38.35,4
3511340,0.61,0.34,-0.72,1.96,-1.62,0.25,33.65,16.25,38.35,4
3511351,0.61,0.34,-0.72,1.97,-1.63,0.32,33.65,16.25,38.35,4
3511364,0.61,0.34,-0.72,2.32,-1.35,0.6,33.65,16.25,38.35,4
3511376,0.6,0.34,-0.72,2.5,-1.26,0.64,33.54,16.29,38.29,4
3511387,0.61,0.34,-0.72,2.47,-1.35,0.57,33.54,16.29,38.29,4
3511398,0.61,0.34,-0.72,2.16,-1.21,0.62,33.54,16.29,38.29,4
3511409,0.6,0.34,-0.72,2.1,-1.11,0.55,33.54,16.29,38.29,4
3511421,0.6,0.34,-0.72,1.96,-1.16,0.43,33.54,16.29,38.29,4
3511433,0.6,0.34,-0.72,1.48,-1.57,0.21,33.55,16.22,38.24,4
3511444,0.6,0.34,-0.71,1.11,-1.64,0.1,33.55,16.22,38.24,4
3511455,0.6,0.34,-0.71,0.84,-1.71,-0.04,33.55,16.22,38.24,4
3511466,0.6,0.34,-0.72,0.61,-1.79,-0.14,33.55,16.22,38.24,4
3511479,0.6,0.34,-0.72,0.73,-1.65,-0.07,33.65,16.12,38.22,4
3511489,0.6,0.34,-0.72,1.12,-1.43,-0.02,33.65,16.12,38.22,4
3511499,0.61,0.34,-0.72,1.41,-1.27,0.05,33.65,16.12,38.22,4
3511509,0.61,0.34,-0.72,1.57,-1.17,0.24,33.65,16.12,38.22,4
3511521,0.6,0.35,-0.72,1.89,-0.83,0.33,33.65,16.12,38.22,4
3511532,0.61,0.35,-0.72,1.94,-0.83,0.28,33.65,16.16,37.98,4
3511542,0.61,0.35,-0.72,1.9,-0.97,0.23,33.65,16.16,37.98,4
3511552,0.61,0.35,-0.72,1.93,-1.0,0.2,33.65,16.16,37.98,4
3511564,0.61,0.35,-0.72,2.01,-0.98,-0.01,33.65,16.16,37.98,4
3511575,0.61,0.35,-0.72,1.8,-1.16,-0.1,33.64,16.07,38.08,4
3511585,0.6,0.35,-0.72,1.55,-1.35,-0.23,33.64,16.07,38.08,4
3511595,0.6,0.34,-0.72,1.4,-1.41,-0.4,33.64,16.07,38.08,4
3511607,0.61,0.34,-0.72,1.53,-1.35,-0.48,33.64,16.07,38.08,4
3511617,0.6,0.34,-0.72,1.65,-1.31,-0.48,33.64,16.07,38.08,4
3511628,0.6,0.34,-0.72,1.68,-1.21,-0.52,33.49,16.1,38.28,4
3511638,0.6,0.34,-0.71,1.5,-1.2,-0.62,33.49,16.1,38.28,4
3511650,0.61,0.34,-0.72,0.84,-1.51,-0.87,33.49,16.1,38.28,4
3511660,0.61,0.34,-0.72,0.84,-1.61,-0.8,33.49,16.1,38.28,4
3511670,0.61,0.34,-0.72,1.25,-1.29,-0.7,33.49,16.1,38.28,4
3511681,0.61,0.34,-0.72,1.77,-1.09,-0.39,33.52,15.98,38.26,4
3511693,0.61,0.34,-0.72,2.66,-1.11,0.06,33.52,15.98,38.26,4
3511703,0.61,0.34,-0.72,2.69,-1.23,0.12,33.52,15.98,38.26,4
3511713,0.61,0.34,-0.72,2.34,-1.41,0.13,33.52,15.98,38.26,4
3511725,0.61,0.35,-0.72,1.62,-1.83,-0.12,33.46,16.01,38.32,4
3511736,0.61,0.34,-0.73,1.49,-2.01,-0.27,33.46,16.01,38.32,4
3511746,0.61,0.34,-0.73,1.47,-2.17,-0.35,33.46,16.01,38.32,4
3511756,0.61,0.34,-0.72,1.54,-2.32,-0.27,33.46,16.01,38.32,4
3511766,0.61,0.34,-0.72,1.68,-2.39,-0.13,33.46,16.01,38.32,4
3511779,0.61,0.34,-0.72,2.15,-2.26,0.25,33.45,15.99,38.13,4
3511789,0.61,0.34,-0.72,2.22,-2.05,0.33,33.45,15.99,38.13,4
3511799,0.61,0.34,-0.71,2.15,-1.82,0.3,33.45,15.99,38.13,4
3511809,0.61,0.34,-0.71,2.0,-1.67,0.3,33.45,15.99,38.13,4
3511822,0.6,0.34,-0.72,2.12,-1.2,0.37,33.63,15.99,37.91,4
3511833,0.6,0.34,-0.72,2.57,-0.62,0.22,33.63,15.99,37.91,4
3511847,0.6,0.34,-0.71,3.15,-0.7,0.34,33.63,15.99,37.91,4
3511857,0.6,0.35,-0.71,2.76,-0.99,0.26,33.63,15.99,37.91,4
3511867,0.6,0.35,-0.71,2.26,-1.23,0.04,33.63,15.99,37.91,4
3511878,0.61,0.35,-0.71,1.86,-1.23,-0.1,33.64,16.01,37.67,4
3511890,0.61,0.34,-0.72,1.72,-0.75,-0.05,33.64,16.01,37.67,4
3511900,0.61,0.34,-0.72,1.94,-0.66,0.07,33.64,16.01,37.67,4
3511910,0.61,0.34,-0.72,2.17,-0.81,0.15,33.64,16.01,37.67,4
3511920,0.61,0.34,-0.72,2.35,-1.0,0.21,33.64,16.01,37.67,4
3511933,0.61,0.35,-0.72,2.51,-1.1,0.21,33.62,15.99,37.43,4
3511943,0.6,0.35,-0.72,2.49,-1.08,0.12,33.62,15.99,37.43,4
3511953,0.6,0.35,-0.72,2.51,-1.04,-0.0,33.62,15.99,37.43,4
3511963,0.6,0.35,-0.72,2.49,-1.13,-0.18,33.62,15.99,37.43,4
3511976,0.61,0.35,-0.72,2.14,-1.43,-0.5,33.59,16.02,37.52,4
3511986,0.61,0.35,-0.72,1.96,-1.49,-0.51,33.59,16.02,37.52,4
3511996,0.61,0.34,-0.73,2.04,-1.39,-0.48,33.59,16.02,37.52,4
3512006,0.61,0.34,-0.73,2.48,-1.27,-0.28,33.59,16.02,37.52,4
3512017,0.61,0.34,-0.73,3.61,-1.26,0.16,33.59,16.02,37.52,4
3512029,0.61,0.35,-0.72,3.74,-1.43,0.23,33.58,15.97,37.36,4
3512040,0.6,0.35,-0.72,3.66,-1.85,0.08,33.58,15.97,37.36,4
3512051,0.61,0.35,-0.72,2.98,-2.76,-0.74,33.58,15.97,37.36,4
3512062,0.61,0.35,-0.72,2.66,-2.76,-0.85,33.58,15.97,37.36,4
3512073,0.61,0.35,-0.72,2.56,-2.42,-0.89,33.54,15.95,37.47,4
3512086,0.61,0.34,-0.72,2.84,-2.12,-0.75,33.54,15.95,37.47,4
3512097,0.61,0.34,-0.71,3.11,-1.95,-0.65,33.54,15.95,37.47,4
3512107,0.61,0.34,-0.71,3.23,-1.77,-0.51,33.54,15.95,37.47,4
3512117,0.61,0.35,-0.71,3.1,-1.72,-0.47,33.54,15.95,37.47,4
3512129,0.61,0.35,-0.71,2.4,-1.79,-0.5,33.54,15.97,37.44,4
3512140,0.61,0.35,-0.72,2.2,-1.69,-0.56,33.54,15.97,37.44,4
3512150,0.61,0.35,-0.71,2.23,-1.61,-0.67,33.54,15.97,37.44,4
3512160,0.61,0.35,-0.71,2.33,-1.65,-0.69,33.54,15.97,37.44,4
3512170,0.61,0.35,-0.71,2.33,-1.7,-0.64,33.54,15.97,37.44,4
3512183,0.61,0.35,-0.71,2.26,-1.52,-0.78,33.6,15.84,37.36,4
3512193,0.61,0.35,-0.71,2.11,-1.41,-0.9,33.6,15.84,37.36,4
3512204,0.61,0.35,-0.71,1.86,-1.32,-0.97,33.6,15.84,37.36,4
3512216,0.61,0.34,-0.71,1.35,-1.43,-0.98,33.6,15.84,37.36,4
3512228,0.61,0.34,-0.72,1.25,-1.51,-0.93,33.59,15.78,37.54,4
3512238,0.61,0.34,-0.72,1.34,-1.47,-0.82,33.59,15.78,37.54,4
3512249,0.61,0.34,-0.72,1.81,-1.33,-0.5,33.59,15.78,37.54,4
3512260,0.61,0.34,-0.72,2.06,-1.38,-0.39,33.59,15.78,37.54,4
3512270,0.61,0.35,-0.72,2.16,-1.46,-0.37,33.59,15.78,37.54,4
3512281,0.61,0.35,-0.71,2.03,-1.58,-0.41,33.71,15.75,37.67,4
3512292,0.61,0.35,-0.71,1.56,-1.6,-0.6,33.71,15.75,37.67,4
3512303,0.61,0.34,-0.71,1.48,-1.55,-0.66,33.71,15.75,37.67,4
3512314,0.61,0.34,-0.71,1.59,-1.51,-0.66,33.71,15.75,37.67,4
3512327,0.61,0.34,-0.71,2.11,-1.51,-0.41,33.8,15.69,37.62,4
3512339,0.61,0.34,-0.7,2.36,-1.45,-0.33,33.8,15.69,37.62,4
3512351,0.61,0.34,-0.7,2.13,-1.08,-0.18,33.8,15.69,37.62,4
3512362,0.61,0.34,-0.7,1.74,-0.79,-0.02,33.8,15.69,37.62,4
3512374,0.61,0.34,-0.7,1.36,-0.51,0.17,33.9,15.68,37.56,4
3512384,0.61,0.34,-0.71,1.07,-0.25,0.32,33.9,15.68,37.56,4
3512395,0.61,0.35,-0.71,0.77,-0.12,0.3,33.9,15.68,37.56,4
3512406,0.61,0.35,-0.72,0.74,-0.14,0.21,33.9,15.68,37.56,4
3512416,0.61,0.36,-0.73,0.75,-0.05,0.06,33.9,15.68,37.56,4
3512427,0.61,0.36,-0.73,0.73,-0.01,-0.14,33.8,15.76,37.72,4
3512438,0.61,0.35,-0.73,0.51,-0.58,-0.51,33.8,15.76,37.72,4
3512449,0.61,0.35,-0.74,0.57,-1.03,-0.56,33.8,15.76,37.72,4
3512460,0.61,0.35,-0.74,0.92,-1.34,-0.53,33.8,15.76,37.72,4
3512471,0.61,0.35,-0.74,1.33,-1.54,-0.51,33.77,15.85,37.76,4
3512482,0.61,0.35,-0.73,1.64,-1.75,-0.41,33.77,15.85,37.76,4
3512494,0.61,0.35,-0.73,1.85,-1.91,-0.36,33.77,15.85,37.76,4
3512507,0.61,0.34,-0.72,2.14,-2.42,-0.48,33.77,15.85,37.76,4
3512518,0.61,0.34,-0.72,2.0,-2.72,-0.55,33.77,15.85,37.76,4
3512529,0.61,0.34,-0.71,1.86,-2.85,-0.47,33.71,15.81,37.73,4
3512539,0.61,0.34,-0.71,1.99,-2.68,-0.28,33.71,15.81,37.73,4
3512551,0.6,0.34,-0.71,2.23,-2.26,-0.06,33.71,15.81,37.73,4
3512561,0.6,0.34,-0.7,2.13,-2.43,-0.1,33.71,15.81,37.73,4
3512572,0.6,0.34,-0.7,1.89,-2.62,-0.21,33.7,15.78,37.61,4
3512582,0.6,0.34,-0.7,1.74,-2.61,-0.34,33.7,15.78,37.61,4
3512594,0.61,0.34,-0.7,1.55,-2.11,-0.62,33.7,15.78,37.61,4
3512604,0.61,0.34,-0.7,1.46,-1.93,-0.7,33.7,15.78,37.61,4
3512614,0.61,0.34,-0.7,1.3,-1.73,-0.69,33.7,15.78,37.61,4
3512625,0.61,0.34,-0.7,1.16,-1.43,-0.65,33.81,15.82,37.56,4
3512637,0.61,0.34,-0.7,1.05,-0.87,-0.76,33.81,15.82,37.56,4
3512647,0.61,0.34,-0.71,1.18,-0.58,-0.76,33.81,15.82,37.56,4
3512657,0.61,0.34,-0.71,1.56,-0.13,-0.64,33.81,15.82,37.56,4
3512670,0.61,0.34,-0.71,2.25,0.63,-0.64,33.75,15.8,37.6,4
3512682,0.61,0.34,-0.72,2.2,0.6,-0.75,33.75,15.8,37.6,4
3512692,0.61,0.34,-0.72,1.94,0.37,-0.94,33.75,15.8,37.6,4
3512702,0.61,0.34,-0.72,1.66,0.16,-1.16,33.75,15.8,37.6,4
3512713,0.61,0.34,-0.72,0.82,-0.32,-1.59,33.75,15.8,37.6,4
3512725,0.62,0.33,-0.71,0.28,-0.6,-1.73,33.82,15.69,37.64,4
3512735,0.62,0.32,-0.71,-0.21,-0.72,-1.74,33.82,15.69,37.64,4
3512749,0.61,0.31,-0.71,-1.34,-0.7,-1.46,33.82,15.69,37.64,4
3512760,0.61,0.31,-0.71,-2.15,-0.98,-1.32,33.82,15.69,37.64,4
3512772,0.61,0.31,-0.71,-2.99,-1.58,-1.08,33.85,15.56,37.7,4
3512783,0.61,0.3,-0.71,-3.61,-2.31,-0.8,33.85,15.56,37.7,4
3512793,0.61,0.3,-0.71,-3.77,-2.74,-0.73,33.85,15.56,37.7,4
3512804,0.62,0.3,-0.71,-2.51,-1.99,-0.62,33.85,15.56,37.7,4
3512816,0.62,0.3,-0.7,-0.94,-1.23,1.14,33.85,15.56,37.7,4
3512828,0.63,0.32,-0.7,-0.77,-0.89,2.11,33.95,15.71,37.88,4
3512838,0.63,0.32,-0.7,-0.52,-0.24,2.74,33.95,15.71,37.88,4
3512848,0.63,0.33,-0.71,-0.08,0.59,3.17,33.95,15.71,37.88,4
3512859,0.63,0.34,-0.72,0.86,1.59,4.0,33.95,15.71,37.88,4
3512870,0.62,0.36,-0.74,1.27,1.42,4.14,33.97,15.75,37.9,4
3512882,0.62,0.36,-0.74,1.71,1.08,4.22,33.97,15.75,37.9,4
3512893,0.61,0.37,-0.74,2.1,0.46,3.95,33.97,15.75,37.9,4
3512904,0.61,0.38,-0.75,2.09,-0.02,3.44,33.97,15.75,37.9,4
3512915,0.6,0.38,-0.75,2.02,-0.65,2.79,33.97,15.75,37.9,4
3512928,0.6,0.37,-0.75,2.03,-1.88,1.39,33.94,15.73,37.77,4
3512940,0.6,0.37,-0.74,2.26,-2.24,0.73,33.94,15.73,37.77,4
3512952,0.61,0.36,-0.74,2.54,-2.41,0.21,33.94,15.73,37.77,4
3512964,0.61,0.35,-0.72,3.03,-2.52,-0.09,33.94,15.73,37.77,4
3512975,0.61,0.34,-0.71,2.9,-2.45,-0.02,33.99,15.86,37.91,4
3512985,0.61,0.34,-0.7,2.42,-2.33,0.08,33.99,15.86,37.91,4
3512996,0.6,0.33,-0.7,1.23,-2.18,0.42,33.99,15.86,37.91,4
3513007,0.6,0.32,-0.7,0.86,-2.05,0.59,33.99,15.86,37.91,4
3513017,0.6,0.32,-0.71,0.83,-1.85,0.83,33.99,15.86,37.91,4
3513028,0.6,0.33,-0.71,1.19,-1.62,1.33,33.97,15.91,38.03,4
3513039,0.6,0.34,-0.71,1.85,-0.63,2.16,33.97,15.91,38.03,4
3513050,0.59,0.35,-0.71,1.78,-0.33,2.12,33.97,15.91,38.03,4
3513060,0.59,0.36,-0.71,1.41,-0.29,1.68,33.97,15.91,38.03,4
3513071,0.6,0.36,-0.71,0.82,-0.32,0.99,33.99,15.89,37.9,4
3513082,0.6,0.36,-0.72,-0.78,-0.79,-0.16,33.99,15.89,37.9,4
3513093,0.6,0.35,-0.72,-1.29,-1.06,-0.65,33.99,15.89,37.9,4
3513105,0.6,0.35,-0.72,-1.5,-1.28,-1.06,33.99,15.89,37.9,4
3513116,0.61,0.35,-0.72,-1.66,-1.44,-1.59,33.99,15.89,37.9,4
3513128,0.61,0.34,-0.72,-1.67,-1.58,-1.69,34.01,15.91,37.92,4
3513140,0.61,0.33,-0.72,-1.38,-1.62,-1.61,34.01,15.91,37.92,4
3513152,0.61,0.33,-0.72,0.36,-0.6,-0.56,34.01,15.91,37.92,4
3513163,0.61,0.33,-0.72,1.42,0.28,0.21,34.01,15.91,37.92,4
3513174,0.61,0.34,-0.73,2.24,0.9,0.8,33.91,15.86,38.04,4
3513186,0.6,0.35,-0.73,2.61,0.88,0.84,33.91,15.86,38.04,4
3513197,0.61,0.35,-0.73,2.3,0.6,0.44,33.91,15.86,38.04,4
3513209,0.61,0.35,-0.73,1.88,0.39,0.01,33.91,15.86,38.04,4
3513222,0.61,0.35,-0.73,1.22,-0.37,-0.71,33.74,15.83,37.88,4
3513232,0.61,0.34,-0.73,0.98,-0.9,-0.9,33.74,15.83,37.88,4
3513242,0.61,0.33,-0.72,0.78,-1.37,-1.1,33.74,15.83,37.88,4
3513252,0.61,0.33,-0.72,0.79,-1.66,-1.24,33.74,15.83,37.88,4
3513264,0.62,0.32,-0.71,1.44,-1.43,-0.8,33.74,15.83,37.88,4
3513275,0.61,0.33,-0.71,1.93,-0.78,-0.25,33.79,15.97,37.84,4
3513285,0.61,0.33,-0.71,2.39,-0.16,0.18,33.79,15.97,37.84,4
3513295,0.61,0.33,-0.71,2.5,-0.09,0.59,33.79,15.97,37.84,4
3513307,0.6,0.34,-0.71,1.56,0.08,0.19,33.79,15.97,37.84,4
3513318,0.6,0.34,-0.72,1.15,0.19,-0.42,33.79,15.97,37.84,4
3513329,0.6,0.34,-0.73,0.91,0.17,-0.85,33.73,16.12,37.94,4
3513341,0.6,0.33,-0.74,1.22,-0.1,-1.22,33.73,16.12,37.94,4
3513353,0.6,0.33,-0.74,1.83,-0.3,-1.06,33.73,16.12,37.94,4
3513366,0.6,0.33,-0.73,2.77,-1.19,-0.12,33.73,16.12,37.94,4
3513377,0.6,0.33,-0.73,2.76,-1.48,0.31,33.72,16.15,37.98,4
3513389,0.6,0.33,-0.73,2.68,-1.35,0.19,33.72,16.15,37.98,4
3513400,0.6,0.33,-0.73,2.46,-1.38,-0.22,33.72,16.15,37.98,4
3513411,0.6,0.33,-0.73,2.44,-1.56,-0.38,33.72,16.15,37.98,4
3513422,0.61,0.33,-0.73,2.51,-1.73,-0.57,33.67,16.15,38.03,4
3513432,0.61,0.33,-0.73,2.55,-1.81,-0.67,33.67,16.15,38.03,4
3513444,0.61,0.33,-0.72,2.11,-2.05,-0.61,33.67,16.15,38.03,4
3513454,0.61,0.33,-0.72,1.86,-2.24,-0.54,33.67,16.15,38.03,4
3513464,0.61,0.33,-0.72,1.64,-2.34,-0.5,33.67,16.15,38.03,4
3513475,0.61,0.33,-0.72,1.53,-2.51,-0.43,33.61,16.12,38.07,4
3513487,0.61,0.32,-0.72,1.86,-2.69,-0.08,33.61,16.12,38.07,4
3513497,0.61,0.33,-0.72,2.23,-2.58,0.18,33.61,16.12,38.07,4
3513508,0.61,0.32,-0.72,2.6,-2.44,0.46,33.61,16.12,38.07,4
3513519,0.61,0.33,-0.71,2.84,-2.31,0.68,33.57,16.15,37.97,4
3513530,0.61,0.33,-0.71,2.76,-2.12,0.81,33.57,16.15,37.97,4
3513542,0.61,0.33,-0.7,2.01,-2.08,0.85,33.57,16.15,37.97,4
3513552,0.61,0.32,-0.71,1.24,-2.0,0.84,33.57,16.15,37.97,4
3513562,0.61,0.32,-0.71,1.03,-1.2,0.9,33.57,16.15,37.97,4
3513575,0.61,0.33,-0.72,1.49,-1.0,1.4,33.59,16.07,37.87,4
3513586,0.61,0.33,-0.72,1.83,-0.98,1.88,33.59,16.07,37.87,4
3513597,0.61,0.34,-0.72,1.87,-1.24,1.95,33.59,16.07,37.87,4
3513608,0.61,0.35,-0.72,1.93,-0.86,1.65,33.59,16.07,37.87,4
3513619,0.61,0.35,-0.72,2.08,-0.43,1.33,33.49,15.99,37.86,4
3513629,0.61,0.35,-0.72,2.0,-0.41,1.21,33.49,15.99,37.86,4
3513640,0.61,0.35,-0.73,1.6,-0.78,0.83,33.49,15.99,37.86,4
3513651,0.61,0.36,-0.73,1.67,-0.87,0.72,33.49,15.99,37.86,4
3513661,0.61,0.36,-0.73,1.76,-0.85,0.6,33.49,15.99,37.86,4
3513671,0.6,0.36,-0.73,1.75,-0.88,0.39,33.52,16.01,37.92,4
3513685,0.6,0.35,-0.72,1.51,-1.15,-0.36,33.52,16.01,37.92,4
3513695,0.6,0.35,-0.72,1.39,-1.34,-0.72,33.52,16.01,37.92,4
3513705,0.6,0.34,-0.72,1.29,-1.6,-0.99,33.52,16.01,37.92,4
3513715,0.6,0.34,-0.72,1.34,-1.7,-1.15,33.52,16.01,37.92,4
3513728,0.6,0.33,-0.71,1.98,-1.03,-0.92,33.48,15.96,37.93,4
3513738,0.6,0.33,-0.71,2.22,-0.66,-0.7,33.48,15.96,37.93,4
3513748,0.6,0.33,-0.71,2.28,-0.55,-0.46,33.48,15.96,37.93,4
3513758,0.6,0.33,-0.71,2.18,-0.59,-0.26,33.48,15.96,37.93,4
3513770,0.6,0.33,-0.71,1.89,-0.46,-0.09,33.49,16.1,37.93,4
3513780,0.6,0.33,-0.71,1.81,-0.24,-0.07,33.49,16.1,37.93,4
3513790,0.61,0.33,-0.72,1.75,-0.01,-0.11,33.49,16.1,37.93,4
3513800,0.61,0.33,-0.72,1.74,0.11,-0.04,33.49,16.1,37.93,4
3513813,0.61,0.33,-0.73,2.09,-0.02,0.2,33.49,16.1,37.93,4
3513824,0.61,0.34,-0.73,2.42,-0.2,0.17,33.43,15.93,37.96,4
3513834,0.61,0.34,-0.73,2.45,-0.48,0.2,33.43,15.93,37.96,4
3513844,0.61,0.34,-0.73,2.26,-0.63,0.23,33.43,15.93,37.96,4
3513855,0.61,0.34,-0.73,2.11,-0.61,0.32,33.43,15.93,37.96,4
3513866,0.61,0.34,-0.73,2.14,-0.69,0.26,33.43,15.93,37.96,4
3513877,0.61,0.34,-0.73,2.14,-0.92,0.2,33.52,15.83,37.75,4
3513887,0.61,0.34,-0.73,2.13,-1.2,0.17,33.52,15.83,37.75,4
3513897,0.61,0.34,-0.72,2.21,-1.21,0.22,33.52,15.83,37.75,4
3513909,0.6,0.34,-0.72,2.23,-1.12,0.29,33.52,15.83,37.75,4
3513919,0.6,0.34,-0.72,2.21,-1.13,0.28,33.47,15.86,37.66,4
3513932,0.6,0.34,-0.72,2.03,-1.39,0.08,33.47,15.86,37.66,4
3513943,0.6,0.34,-0.72,1.81,-1.46,-0.04,33.47,15.86,37.66,4
3513954,0.6,0.34,-0.72,1.56,-1.59,-0.1,33.47,15.86,37.66,4
3513969,0.6,0.34,-0.72,1.49,-1.55,-0.05,33.53,16.0,37.84,4
3513981,0.6,0.34,-0.72,1.72,-1.45,-0.04,33.53,16.0,37.84,4
3513991,0.6,0.34,-0.72,1.88,-1.4,-0.03,33.53,16.0,37.84,4
3514003,0.6,0.34,-0.72,2.2,-0.9,-0.02,33.53,16.0,37.84,4
3514013,0.6,0.34,-0.72,2.26,-0.66,0.04,33.53,16.0,37.84,4
3514023,0.6,0.34,-0.72,2.22,-0.53,0.09,33.53,16.03,37.8,4
3514037,0.6,0.34,-0.72,2.26,-0.41,0.11,33.53,16.03,37.8,4
3514048,0.6,0.34,-0.73,2.29,-0.39,0.17,33.53,16.03,37.8,4
3514061,0.6,0.34,-0.73,2.21,-0.9,0.27,33.53,16.03,37.8,4
3514073,0.61,0.34,-0.73,2.17,-1.2,0.28,33.59,16.08,37.94,4
3514083,0.61,0.34,-0.72,2.18,-1.39,0.34,33.59,16.08,37.94,4
3514093,0.61,0.34,-0.72,2.09,-1.4,0.38,33.59,16.08,37.94,4
3514104,0.61,0.34,-0.72,1.91,-1.3,0.56,33.59,16.08,37.94,4
3514115,0.6,0.34,-0.72,1.87,-1.27,0.53,33.59,16.08,37.94,4
3514126,0.6,0.34,-0.72,1.83,-1.19,0.49,33.57,16.02,37.97,4
3514136,0.6,0.34,-0.72,1.83,-1.06,0.48,33.57,16.02,37.97,4
3514147,0.6,0.34,-0.73,1.98,-1.14,0.41,33.57,16.02,37.97,4
3514158,0.6,0.35,-0.72,2.05,-1.36,0.24,33.57,16.02,37.97,4
3514169,0.6,0.35,-0.72,2.02,-1.42,-0.0,33.55,16.05,38.09,4
3514179,0.6,0.35,-0.72,1.85,-1.38,-0.23,33.55,16.05,38.09,4
3514190,0.61,0.34,-0.72,1.43,-0.95,-0.34,33.55,16.05,38.09,4
3514200,0.6,0.34,-0.72,1.43,-0.72,-0.35,33.55,16.05,38.09,4
3514212,0.6,0.34,-0.72,1.48,-0.69,-0.39,33.55,16.05,38.09,4
3514224,0.61,0.34,-0.72,1.3,-1.16,-0.4,33.57,16.05,38.28,4
3514235,0.61,0.34,-0.72,1.38,-1.16,-0.26,33.57,16.05,38.28,4
3514247,0.61,0.34,-0.72,1.61,-0.93,-0.09,33.57,16.05,38.28,4
3514260,0.61,0.33,-0.72,2.07,-0.84,0.16,33.57,16.05,38.28,4
3514271,0.6,0.33,-0.72,2.09,-0.98,0.22,33.49,16.04,38.42,4
3514284,0.6,0.33,-0.72,1.83,-1.09,0.18,33.49,16.04,38.42,4
3514295,0.61,0.34,-0.72,1.67,-1.0,0.25,33.49,16.04,38.42,4
3514305,0.61,0.34,-0.72,1.61,-0.82,0.39,33.49,16.04,38.42,4
3514315,0.6,0.34,-0.72,1.73,-0.56,0.59,33.49,16.04,38.42,4
3514326,0.6,0.34,-0.72,1.95,-0.38,0.69,33.45,16.04,38.49,4
3514338,0.6,0.34,-0.72,2.11,-0.63,0.55,33.45,16.04,38.49,4
3514349,0.6,0.35,-0.72,1.96,-0.79,0.37,33.45,16.04,38.49,4
3514363,0.6,0.35,-0.72,1.46,-0.93,0.07,33.45,16.04,38.49,4
3514374,0.6,0.35,-0.73,1.26,-1.0,-0.14,33.56,15.98,38.68,4
3514384,0.6,0.34,-0.73,1.25,-1.07,-0.32,33.56,15.98,38.68,4
3514394,0.6,0.34,-0.73,1.36,-1.05,-0.45,33.56,15.98,38.68,4
3514406,0.61,0.34,-0.73,1.51,-1.1,-0.36,33.56,15.98,38.68,4
3514416,0.61,0.34,-0.72,1.35,-1.28,-0.27,33.56,15.98,38.68,4
3514427,0.6,0.34,-0.72,1.26,-1.41,-0.17,33.56,15.98,38.7,4
3514440,0.6,0.34,-0.72,1.47,-1.45,-0.0,33.56,15.98,38.7,4
3514452,0.6,0.34,-0.72,1.65,-1.45,0.08,33.56,15.98,38.7,4
3514466,0.6,0.34,-0.72,1.61,-1.46,0.19,33.56,15.98,38.7,4
3514476,0.6,0.34,-0.72,1.59,-1.38,0.31,33.65,15.86,38.67,4
3514488,0.6,0.34,-0.72,1.54,-1.24,0.4,33.65,15.86,38.67,4
3514500,0.6,0.34,-0.73,1.67,-1.32,0.49,33.65,15.86,38.67,4
3514512,0.6,0.34,-0.73,1.74,-1.48,0.43,33.65,15.86,38.67,4
3514523,0.6,0.35,-0.72,1.72,-1.51,0.38,33.64,15.87,38.65,4
3514534,0.6,0.35,-0.72,1.4,-1.53,0.12,33.64,15.87,38.65,4
3514546,0.6,0.35,-0.72,1.2,-1.6,-0.01,33.64,15.87,38.65,4
3514558,0.6,0.35,-0.73,1.2,-1.65,-0.2,33.64,15.87,38.65,4
3514570,0.6,0.34,-0.73,1.39,-1.61,-0.25,33.65,15.93,38.51,4
3514582,0.6,0.34,-0.72,1.61,-1.56,-0.27,33.65,15.93,38.51,4
3514593,0.6,0.34,-0.72,1.89,-1.36,-0.33,33.65,15.93,38.51,4
3514604,0.6,0.34,-0.72,1.89,-1.23,-0.31,33.65,15.93,38.51,4
3514616,0.6,0.34,-0.72,1.77,-1.09,-0.3,33.65,15.93,38.51,4
3514628,0.6,0.34,-0.72,1.5,-1.03,-0.44,33.63,15.92,38.53,4
3514639,0.6,0.34,-0.72,1.47,-0.94,-0.52,33.63,15.92,38.53,4
3514649,0.6,0.34,-0.72,1.44,-0.8,-0.52,33.63,15.92,38.53,4
3514660,0.6,0.34,-0.72,1.38,-0.77,-0.44,33.63,15.92,38.53,4
3514673,0.6,0.34,-0.72,1.35,-0.84,-0.32,33.66,15.95,38.55,4
3514685,0.61,0.34,-0.72,1.33,-0.87,-0.29,33.66,15.95,38.55,4
3514698,0.61,0.34,-0.73,1.3,-0.76,-0.18,33.66,15.95,38.55,4
3514710,0.61,0.34,-0.73,1.41,-0.72,-0.17,33.66,15.95,38.55,4
3514722,0.61,0.34,-0.73,1.49,-0.98,-0.25,33.63,16.02,38.37,4
3514733,0.61,0.34,-0.73,1.47,-1.22,-0.26,33.63,16.02,38.37,4
3514745,0.61,0.34,-0.73,1.42,-1.45,-0.2,33.63,16.02,38.37,4
3514758,0.6,0.34,-0.73,1.59,-1.63,0.04,33.63,16.02,38.37,4
3514769,0.6,0.34,-0.72,1.74,-1.56,0.06,33.53,15.93,38.37,4
3514781,0.6,0.34,-0.72,1.76,-1.58,-0.03,33.53,15.93,38.37,4
3514793,0.6,0.34,-0.72,1.25,-1.6,-0.34,33.53,15.93,38.37,4
3514804,0.6,0.34,-0.72,1.08,-1.49,-0.46,33.53,15.93,38.37,4
3514819,0.6,0.34,-0.72,1.25,-1.03,-0.59,33.47,15.93,38.3,4
3514830,0.6,0.34,-0.72,1.49,-0.97,-0.57,33.47,15.93,38.3,4
3514844,0.6,0.34,-0.72,1.98,-0.98,-0.43,33.47,15.93,38.3,4
3514856,0.6,0.34,-0.72,2.06,-0.99,-0.39,33.47,15.93,38.3,4
3514866,0.6,0.34,-0.72,1.99,-0.95,-0.35,33.47,15.93,38.3,4
3514879,0.6,0.34,-0.73,1.83,-0.7,-0.48,33.43,15.97,38.2,4
3514889,0.6,0.34,-0.73,1.71,-0.71,-0.61,33.43,15.97,38.2,4
3514899,0.6,0.34,-0.73,1.48,-0.98,-0.69,33.43,15.97,38.2,4
3514912,0.61,0.33,-0.73,1.35,-1.56,-0.65,33.43,15.97,38.2,4
3514923,0.61,0.33,-0.73,1.5,-1.81,-0.54,33.43,15.94,38.07,4
3514935,0.61,0.33,-0.73,1.77,-1.93,-0.36,33.43,15.94,38.07,4
3514947,0.61,0.33,-0.73,1.98,-2.1,-0.04,33.43,15.94,38.07,4
3514959,0.61,0.33,-0.72,1.93,-2.12,0.09,33.43,15.94,38.07,4
3514971,0.61,0.33,-0.72,1.74,-2.12,0.28,33.29,15.93,38.25,4
3514982,0.61,0.33,-0.72,1.72,-2.04,0.35,33.29,15.93,38.25,4
3514992,0.61,0.33,-0.72,1.73,-2.0,0.42,33.29,15.93,38.25,4
3515002,0.61,0.33,-0.72,1.86,-2.01,0.52,33.29,15.93,38.25,4
3515012,0.6,0.33,-0.71,1.96,-1.95,0.57,33.29,15.93,38.25,4
3515024,0.6,0.34,-0.71,1.72,-1.7,0.38,33.35,16.02,38.42,4
3515036,0.6,0.34,-0.71,1.36,-1.62,0.28,33.35,16.02,38.42,4
3515049,0.6,0.34,-0.72,1.15,-1.28,0.33,33.35,16.02,38.42,4
3515061,0.6,0.34,-0.72,1.41,-1.16,0.42,33.35,16.02,38.42,4
3515072,0.6,0.34,-0.72,1.69,-1.09,0.49,33.34,16.09,38.31,4
3515084,0.6,0.34,-0.72,1.85,-0.97,0.37,33.34,16.09,38.31,4
3515095,0.61,0.34,-0.72,1.66,-0.86,0.25,33.34,16.09,38.31,4
3515107,0.61,0.34,-0.72,1.41,-0.77,0.17,33.34,16.09,38.31,4
3515119,0.61,0.34,-0.73,1.11,-0.86,-0.06,33.4,15.96,38.31,4
3515130,0.6,0.34,-0.73,1.29,-0.84,-0.15,33.4,15.96,38.31,4
3515140,0.61,0.34,-0.73,1.56,-0.64,-0.27,33.4,15.96,38.31,4
3515153,0.61,0.34,-0.73,1.65,-0.77,-0.35,33.4,15.96,38.31,4
3515165,0.6,0.34,-0.73,1.58,-0.95,-0.35,33.4,15.96,38.31,4
3515177,0.6,0.34,-0.72,1.59,-0.9,-0.29,33.36,15.96,38.09,4
3515188,0.6,0.34,-0.72,1.52,-0.87,-0.26,33.36,15.96,38.09,4
3515200,0.6,0.33,-0.72,1.43,-0.92,-0.17,33.36,15.96,38.09,4
3515213,0.6,0.34,-0.73,1.29,-1.1,-0.12,33.36,15.96,38.09,4
3515224,0.6,0.34,-0.73,1.17,-1.26,-0.06,33.4,16.0,37.99,4
3515236,0.6,0.34,-0.73,1.1,-1.4,-0.05,33.4,16.0,37.99,4
3515248,0.6,0.34,-0.73,1.22,-1.58,-0.11,33.4,16.0,37.99,4
3515259,0.61,0.34,-0.72,1.37,-1.5,-0.15,33.4,16.0,37.99,4
3515271,0.61,0.34,-0.72,1.41,-1.21,-0.16,33.49,15.95,37.8,4
3515282,0.61,0.34,-0.72,1.34,-1.23,-0.14,33.49,15.95,37.8,4
3515294,0.6,0.34,-0.72,1.29,-1.27,-0.22,33.49,15.95,37.8,4
3515308,0.61,0.34,-0.72,1.39,-1.3,-0.36,33.49,15.95,37.8,4
3515319,0.61,0.34,-0.72,1.34,-1.29,-0.37,33.47,15.95,37.7,4
3515330,0.6,0.34,-0.72,1.3,-1.26,-0.39,33.47,15.95,37.7,4
3515342,0.6,0.34,-0.72,1.41,-0.93,-0.41,33.47,15.95,37.7,4
3515354,0.6,0.33,-0.72,1.57,-0.77,-0.38,33.47,15.95,37.7,4
3515368,0.61,0.33,-0.73,1.68,-0.8,-0.16,33.43,16.01,37.59,4
3515380,0.61,0.33,-0.73,1.78,-0.93,-0.04,33.43,16.01,37.59,4
3515393,0.61,0.33,-0.73,2.06,-1.27,0.02,33.43,16.01,37.59,4
3515405,0.61,0.33,-0.72,2.11,-1.39,0.11,33.43,16.01,37.59,4
3515418,0.61,0.33,-0.72,1.91,-1.37,0.37,33.41,15.97,37.48,4
3515430,0.61,0.33,-0.72,1.75,-1.35,0.5,33.41,15.97,37.48,4
3515441,0.61,0.34,-0.72,1.73,-1.27,0.65,33.41,15.97,37.48,4
3515453,0.6,0.34,-0.72,2.29,-1.04,0.72,33.41,15.97,37.48,4
3515465,0.6,0.34,-0.72,2.52,-1.06,0.67,33.41,15.97,37.48,4
3515476,0.6,0.34,-0.72,2.57,-1.15,0.55,33.33,15.86,37.5,4
3515488,0.6,0.34,-0.72,2.0,-1.23,0.1,33.33,15.86,37.5,4
3515499,0.61,0.34,-0.72,1.57,-1.3,-0.11,33.33,15.86,37.5,4
3515512,0.61,0.34,-0.73,1.32,-1.55,-0.31,33.33,15.86,37.5,4
3515524,0.61,0.34,-0.73,1.62,-1.62,-0.31,33.35,15.8,37.75,4
3515535,0.61,0.34,-0.73,2.16,-1.48,-0.23,33.35,15.8,37.75,4
3515546,0.61,0.33,-0.73,2.86,-1.32,-0.01,33.35,15.8,37.75,4
3515557,0.61,0.33,-0.72,2.76,-1.49,0.09,33.35,15.8,37.75,4
3515568,0.61,0.33,-0.72,2.49,-1.52,0.12,33.45,15.91,37.89,4
3515581,0.61,0.33,-0.72,1.95,-1.54,0.18,33.45,15.91,37.89,4
3515592,0.61,0.33,-0.72,1.75,-1.63,0.25,33.45,15.91,37.89,4
3515602,0.61,0.33,-0.72,1.61,-1.72,0.38,33.45,15.91,37.89,4
3515612,0.61,0.33,-0.72,1.7,-1.65,0.58,33.45,15.91,37.89,4
3515623,0.61,0.34,-0.72,2.35,-1.11,1.01,33.37,15.93,37.84,4
3515634,0.6,0.34,-0.72,2.56,-0.92,1.04,33.37,15.93,37.84,4
3515646,0.6,0.35,-0.72,2.51,-0.89,0.96,33.37,15.93,37.84,4
3515659,0.6,0.35,-0.72,2.21,-1.03,0.58,33.37,15.93,37.84,4
3515670,0.6,0.35,-0.72,2.26,-1.05,0.33,33.27,15.86,37.79,4
3515682,0.6,0.35,-0.72,2.38,-1.01,0.07,33.27,15.86,37.79,4
3515694,0.61,0.34,-0.72,2.35,-0.67,-0.26,33.27,15.86,37.79,4
3515705,0.6,0.34,-0.72,2.15,-0.54,-0.24,33.27,15.86,37.79,4
3515716,0.6,0.34,-0.72,2.08,-0.32,-0.18,33.28,15.84,37.75,4
3515728,0.6,0.34,-0.72,2.44,-0.04,-0.03,33.28,15.84,37.75,4
3515740,0.6,0.34,-0.72,2.56,-0.03,0.09,33.28,15.84,37.75,4
3515754,0.6,0.34,-0.72,2.84,0.11,0.25,33.28,15.84,37.75,4
3515764,0.6,0.34,-0.72,2.74,0.1,0.22,33.28,15.84,37.75,4
3515774,0.6,0.34,-0.73,2.43,-0.13,0.12,33.18,15.81,37.76,4
3515787,0.61,0.34,-0.73,1.69,-1.15,0.36,33.18,15.81,37.76,4
3515798,0.6,0.33,-0.74,1.9,-1.37,0.47,33.18,15.81,37.76,4
3515808,0.61,0.33,-0.73,2.6,-1.28,0.45,33.18,15.81,37.76,4
3515819,0.6,0.33,-0.73,3.3,-1.54,0.62,33.15,15.79,37.93,4
3515830,0.6,0.33,-0.73,4.0,-2.58,0.56,33.15,15.79,37.93,4
3515841,0.61,0.34,-0.72,3.93,-2.43,0.94,33.15,15.79,37.93,4
3515852,0.61,0.34,-0.72,3.98,-1.87,1.31,33.15,15.79,37.93,4
3515867,0.6,0.34,-0.71,3.77,-1.28,1.5,33.18,15.75,38.0,4
3515878,0.6,0.34,-0.72,3.26,-1.39,1.44,33.18,15.75,38.0,4
3515892,0.6,0.34,-0.72,2.42,-1.93,1.18,33.18,15.75,38.0,4
3515903,0.6,0.34,-0.72,2.53,-2.22,1.02,33.18,15.75,38.0,4
3515917,0.6,0.34,-0.72,3.15,-2.12,1.03,33.18,15.69,37.95,4
3515928,0.6,0.34,-0.72,3.48,-1.75,1.19,33.18,15.69,37.95,4
3515940,0.6,0.35,-0.72,3.65,-1.39,1.29,33.18,15.69,37.95,4
3515952,0.6,0.35,-0.72,3.51,-1.24,1.07,33.18,15.69,37.95,4
3515962,0.6,0.35,-0.72,3.21,-1.38,0.74,33.18,15.69,37.95,4
3515973,0.6,0.35,-0.72,2.9,-1.48,0.39,33.15,15.61,37.78,4
3515983,0.6,0.35,-0.72,2.67,-1.55,0.1,33.15,15.61,37.78,4
3515995,0.6,0.35,-0.72,2.24,-1.66,-0.55,33.15,15.61,37.78,4
3516005,0.6,0.35,-0.71,1.96,-1.87,-0.81,33.15,15.61,37.78,4
3516016,0.6,0.35,-0.71,1.69,-2.19,-1.05,33.22,15.55,37.91,4
3516029,0.6,0.35,-0.71,1.4,-2.66,-1.57,33.22,15.55,37.91,4
3516041,0.6,0.35,-0.71,1.61,-2.4,-2.04,33.22,15.55,37.91,4
3516054,0.61,0.34,-0.72,0.94,-2.88,-2.21,33.22,15.55,37.91,4
3516065,0.61,0.34,-0.72,0.95,-2.78,-1.99,33.28,15.51,37.89,4
3516076,0.61,0.33,-0.73,1.67,-1.99,-1.47,33.28,15.51,37.89,4
3516086,0.61,0.33,-0.73,2.66,-1.12,-0.84,33.28,15.51,37.89,4
3516098,0.61,0.33,-0.72,3.84,-0.88,0.22,33.28,15.51,37.89,4
3516108,0.61,0.34,-0.72,3.92,-1.11,0.55,33.28,15.51,37.89,4
3516118,0.61,0.34,-0.72,3.89,-1.13,0.85,33.34,15.47,37.78,4
3516132,0.61,0.34,-0.73,3.9,-1.1,1.34,33.34,15.47,37.78,4
3516143,0.61,0.34,-0.73,3.97,-1.3,1.49,33.34,15.47,37.78,4
3516156,0.61,0.35,-0.73,4.6,-2.1,1.88,33.34,15.47,37.78,4
3516168,0.61,0.35,-0.72,5.07,-2.59,2.05,33.43,15.44,37.75,4
3516178,0.61,0.35,-0.72,5.51,-3.11,2.13,33.43,15.44,37.75,4
3516188,0.61,0.35,-0.71,5.84,-3.29,2.22,33.43,15.44,37.75,4
3516198,0.61,0.35,-0.71,6.06,-3.09,2.35,33.43,15.44,37.75,4
3516209,0.6,0.36,-0.71,5.58,-2.26,2.29,33.43,15.44,37.75,4
3516220,0.61,0.36,-0.71,5.18,-2.11,2.04,33.51,15.43,37.79,4
3516232,0.61,0.36,-0.71,4.78,-2.28,1.85,33.51,15.43,37.79,4
3516244,0.6,0.36,-0.71,4.0,-2.44,1.32,33.51,15.43,37.79,4
3516254,0.61,0.36,-0.71,3.57,-2.45,1.01,33.51,15.43,37.79,4
3516266,0.61,0.36,-0.71,2.97,-2.57,0.7,33.56,15.41,37.88,4
3516278,0.61,0.36,-0.71,2.49,-2.54,0.26,33.56,15.41,37.88,4
3516290,0.61,0.36,-0.71,2.73,-1.98,0.29,33.56,15.41,37.88,4
3516303,0.61,0.35,-0.71,3.03,-1.23,0.41,33.56,15.41,37.88,4
3516316,0.61,0.35,-0.71,2.78,-1.32,0.36,33.55,15.32,38.04,4
3516329,0.61,0.35,-0.71,2.74,-1.32,0.65,33.55,15.32,38.04,4
3516341,0.61,0.35,-0.71,3.05,-0.85,0.95,33.55,15.32,38.04,4
3516354,0.61,0.35,-0.71,3.77,-0.35,1.48,33.55,15.32,38.04,4
3516366,0.6,0.35,-0.71,3.92,-0.48,1.47,33.7,15.13,37.98,4
3516377,0.6,0.36,-0.7,3.73,-0.8,1.21,33.7,15.13,37.98,4
3516388,0.6,0.36,-0.7,2.45,-1.44,0.12,33.7,15.13,37.98,4
3516399,0.6,0.36,-0.7,1.96,-1.95,-0.05,33.7,15.13,37.98,4
3516410,0.6,0.36,-0.71,1.64,-2.26,0.16,33.7,15.13,37.98,4
3516422,0.6,0.35,-0.71,3.28,-1.23,0.71,33.71,15.16,38.08,4
3516433,0.61,0.36,-0.71,4.1,-0.72,1.23,33.71,15.16,38.08,4
3516445,0.6,0.36,-0.7,4.57,-0.53,1.51,33.71,15.16,38.08,4
3516458,0.6,0.37,-0.7,4.54,-0.3,1.33,33.71,15.16,38.08,4
3516469,0.6,0.37,-0.7,4.04,-0.25,1.02,33.69,15.09,38.21,4
3516481,0.6,0.37,-0.71,3.31,-0.41,0.62,33.69,15.09,38.21,4
3516493,0.6,0.37,-0.72,2.41,-1.17,-0.12,33.69,15.09,38.21,4
3516504,0.6,0.37,-0.72,2.58,-1.47,-0.36,33.69,15.09,38.21,4
3516515,0.61,0.36,-0.72,2.85,-1.69,-0.58,33.65,14.91,38.22,4
3516527,0.61,0.36,-0.71,2.98,-2.32,-0.85,33.65,14.91,38.22,4
3516539,0.61,0.36,-0.71,2.67,-2.68,-0.83,33.65,14.91,38.22,4
3516552,0.61,0.36,-0.71,2.1,-3.36,-0.76,33.65,14.91,38.22,4
3516563,0.61,0.36,-0.71,1.91,-3.62,-0.87,33.65,14.91,38.22,4
3516574,0.61,0.36,-0.71,1.54,-3.94,-0.99,33.68,14.95,38.19,4
3516584,0.61,0.36,-0.71,1.11,-4.13,-1.03,33.68,14.95,38.19,4
3516596,0.61,0.36,-0.71,0.91,-3.85,-0.81,33.68,14.95,38.19,4
3516606,0.61,0.36,-0.71,1.45,-3.58,-0.44,33.68,14.95,38.19,4
3516617,0.6,0.36,-0.7,2.36,-3.27,-0.07,33.66,14.89,38.17,4
3516630,0.61,0.37,-0.68,4.12,-2.45,0.14,33.66,14.89,38.17,4
3516642,0.61,0.37,-0.68,4.41,-1.95,-0.01,33.66,14.89,38.17,4
3516656,0.61,0.37,-0.67,4.06,-0.01,-0.75,33.66,14.89,38.17,4
3516666,0.61,0.37,-0.68,3.28,1.06,-1.11,33.73,14.94,38.13,4
3516678,0.61,0.36,-0.69,2.33,1.4,-1.37,33.73,14.94,38.13,4
3516690,0.6,0.35,-0.71,1.19,0.33,-1.65,33.73,14.94,38.13,4
3516701,0.61,0.35,-0.71,1.36,-0.33,-1.62,33.73,14.94,38.13,4
3516715,0.61,0.34,-0.71,2.25,-0.46,-0.65,33.73,14.94,38.09,4
3516726,0.62,0.34,-0.71,2.87,0.03,0.27,33.73,14.94,38.09,4
3516738,0.62,0.35,-0.72,3.56,0.63,1.2,33.73,14.94,38.09,4
3516750,0.62,0.36,-0.72,4.45,1.07,2.36,33.73,14.94,38.09,4
3516760,0.62,0.36,-0.72,4.43,0.82,2.55,33.73,14.94,38.09,4
3516771,0.61,0.36,-0.72,4.34,0.41,2.6,33.73,14.92,37.99,4
3516783,0.61,0.37,-0.72,4.56,-1.1,2.34,33.73,14.92,37.99,4
3516794,0.61,0.37,-0.71,4.78,-2.23,2.08,33.73,14.92,37.99,4
3516806,0.61,0.37,-0.7,4.98,-3.01,1.88,33.73,14.92,37.99,4
3516819,0.61,0.38,-0.69,5.22,-2.94,2.17,33.65,14.86,38.13,4
3516829,0.61,0.38,-0.69,5.29,-2.29,2.6,33.65,14.86,38.13,4
3516839,0.61,0.38,-0.7,5.47,-1.3,3.07,33.65,14.86,38.13,4
3516850,0.6,0.39,-0.7,5.74,-0.27,3.33,33.65,14.86,38.13,4
3516862,0.6,0.39,-0.7,5.78,0.17,3.04,33.65,14.86,38.13,4
3516873,0.6,0.39,-0.7,5.49,-0.23,2.65,33.72,14.82,38.01,4
3516884,0.6,0.39,-0.7,4.92,-1.27,2.79,33.72,14.82,38.01,4
3516896,0.61,0.37,-0.7,3.73,-3.13,4.55,33.72,14.82,38.01,4
3516908,0.61,0.37,-0.7,4.01,-2.93,5.36,33.72,14.82,38.01,4
3516919,0.61,0.36,-0.7,4.24,-2.35,6.42,33.66,14.82,37.85,4
3516931,0.61,0.36,-0.71,3.59,-2.38,9.09,33.66,14.82,37.85,4
3516941,0.61,0.36,-0.71,2.81,-2.97,10.46,33.66,14.82,37.85,4
3516951,0.6,0.35,-0.71,2.07,-3.78,11.67,33.66,14.82,37.85,4
3516964,0.6,0.35,-0.72,1.34,-5.27,13.28,33.73,14.74,37.83,4
3516976,0.6,0.36,-0.72,1.4,-5.89,13.87,33.73,14.74,37.83,4
3516987,0.6,0.35,-0.72,1.57,-6.27,14.47,33.73,14.74,37.83,4
3516999,0.6,0.36,-0.71,2.78,-6.42,16.29,33.73,14.74,37.83,4
3517010,0.59,0.37,-0.7,3.51,-5.95,17.16,33.73,14.74,37.83,4
3517021,0.59,0.39,-0.7,3.84,-5.01,17.65,33.77,14.73,37.67,4
3517032,0.59,0.4,-0.7,3.54,-2.2,17.62,33.77,14.73,37.67,4
3517043,0.59,0.41,-0.71,3.69,-1.45,17.38,33.77,14.73,37.67,4
3517055,0.59,0.42,-0.71,4.42,-1.21,16.66,33.77,14.73,37.67,4
3517068,0.61,0.42,-0.69,5.8,-1.25,14.0,33.77,14.46,37.7,4
3517078,0.63,0.42,-0.69,5.68,-1.13,12.55,33.77,14.46,37.7,4
3517089,0.64,0.42,-0.68,5.19,-0.54,11.24,33.77,14.46,37.7,4
3517103,0.66,0.41,-0.68,3.89,0.76,9.12,33.77,14.46,37.7,4
3517115,0.65,0.4,-0.69,3.48,1.23,8.82,33.81,14.23,37.42,4
3517128,0.64,0.39,-0.69,3.19,2.4,9.91,33.81,14.23,37.42,4
3517140,0.62,0.39,-0.7,2.83,2.66,10.43,33.81,14.23,37.42,4
3517150,0.61,0.4,-0.7,2.13,1.74,10.74,33.81,14.23,37.42,4
3517161,0.59,0.4,-0.71,2.23,-1.91,11.32,33.81,14.23,37.42,4
3517172,0.56,0.42,-0.71,3.45,-3.04,11.51,33.9,13.93,37.45,4
3517183,0.54,0.43,-0.71,5.23,-3.55,11.51,33.9,13.93,37.45,4
3517193,0.53,0.44,-0.7,7.43,-3.85,11.15,33.9,13.93,37.45,4
3517204,0.52,0.45,-0.69,11.78,-4.08,9.51,33.9,13.93,37.45,4
3517216,0.52,0.48,-0.68,13.38,-3.99,8.29,33.94,13.66,37.48,4
3517227,0.52,0.49,-0.68,14.55,-3.71,6.68,33.94,13.66,37.48,4
3517238,0.53,0.5,-0.68,15.24,-2.73,2.27,33.94,13.66,37.48,4
3517249,0.54,0.49,-0.67,14.54,-2.56,-0.37,33.94,13.66,37.48,4
3517260,0.55,0.49,-0.67,13.21,-2.78,-2.9,33.94,13.66,37.48,4
3517272,0.56,0.48,-0.66,9.79,-3.43,-6.73,33.99,13.34,37.45,4
3517284,0.58,0.46,-0.66,8.28,-3.45,-8.1,33.99,13.34,37.45,4
3517294,0.59,0.45,-0.66,7.19,-3.2,-9.21,33.99,13.34,37.45,4
3517304,0.59,0.44,-0.66,6.47,-2.19,-9.67,33.99,13.34,37.45,4
3517315,0.59,0.44,-0.66,5.93,-0.82,-9.64,34.0,13.03,37.28,4
3517326,0.58,0.43,-0.67,5.26,0.05,-9.46,34.0,13.03,37.28,4
3517337,0.58,0.43,-0.68,4.55,0.67,-8.96,34.0,13.03,37.28,4
3517350,0.57,0.43,-0.69,5.42,3.27,-8.34,34.0,13.03,37.28,4
3517361,0.57,0.43,-0.7,6.04,4.26,-8.23,34.0,13.03,37.28,4
3517372,0.56,0.42,-0.7,6.51,4.69,-8.26,34.03,12.88,37.27,4
3517382,0.56,0.42,-0.7,6.71,4.48,-8.36,34.03,12.88,37.27,4
3517393,0.56,0.42,-0.69,6.19,2.82,-8.13,34.03,12.88,37.27,4
3517403,0.57,0.41,-0.69,5.75,1.68,-7.79,34.03,12.88,37.27,4
3517414,0.57,0.41,-0.69,5.25,0.57,-7.33,34.01,12.64,37.12,4
3517427,0.58,0.41,-0.69,4.32,-0.36,-6.64,34.01,12.64,37.12,4
3517438,0.6,0.41,-0.69,3.61,-1.19,-6.2,34.01,12.64,37.12,4
3517449,0.6,0.41,-0.68,2.38,-2.87,-5.57,34.01,12.64,37.12,4
3517464,0.62,0.42,-0.67,-1.26,-7.54,-4.49,33.99,12.52,37.17,4
3517476,0.62,0.42,-0.67,-2.79,-9.4,-4.11,33.99,12.52,37.17,4
3517486,0.63,0.43,-0.66,-3.67,-10.26,-3.97,33.99,12.52,37.17,4
3517498,0.64,0.43,-0.65,-4.62,-9.75,-4.32,33.99,12.52,37.17,4
3517509,0.65,0.43,-0.65,-4.92,-8.58,-4.45,33.99,12.52,37.17,4
3517522,0.65,0.43,-0.66,-3.93,-4.25,-3.86,34.02,12.46,37.26,4
3517533,0.63,0.43,-0.66,-3.01,-1.39,-3.42,34.02,12.46,37.26,4
3517544,0.62,0.43,-0.67,-1.81,1.03,-3.15,34.02,12.46,37.26,4
3517556,0.61,0.42,-0.67,0.17,2.85,-3.05,34.02,12.46,37.26,4
3517568,0.6,0.42,-0.68,0.37,2.64,-3.01,34.08,12.48,37.48,4
3517578,0.6,0.42,-0.68,0.63,2.97,-3.18,34.08,12.48,37.48,4
3517588,0.6,0.42,-0.68,1.19,3.76,-3.46,34.08,12.48,37.48,4
3517599,0.6,0.42,-0.68,0.54,2.51,-3.31,34.08,12.48,37.48,4
3517610,0.59,0.41,-0.68,-0.8,0.6,-3.08,34.08,12.48,37.48,4
3517621,0.59,0.41,-0.69,-1.8,-1.16,-3.01,33.94,12.53,37.6,4
3517634,0.59,0.41,-0.69,-2.43,-3.5,-2.89,33.94,12.53,37.6,4
3517645,0.59,0.41,-0.69,-2.38,-4.41,-2.84,33.94,12.53,37.6,4
3517656,0.6,0.41,-0.68,-2.41,-5.39,-2.92,33.94,12.53,37.6,4
3517670,0.6,0.41,-0.68,-3.06,-7.14,-3.0,33.93,12.61,37.41,4
3517680,0.61,0.4,-0.68,-3.51,-7.72,-2.92,33.93,12.61,37.41,4
3517691,0.61,0.4,-0.68,-4.06,-7.86,-2.71,33.93,12.61,37.41,4
3517704,0.61,0.4,-0.68,-4.46,-7.62,-1.76,33.93,12.61,37.41,4
3517715,0.61,0.4,-0.68,-4.35,-7.24,-1.28,34.01,12.65,37.49,4
3517727,0.61,0.4,-0.68,-4.28,-6.52,-0.88,34.01,12.65,37.49,4
3517738,0.6,0.4,-0.68,-4.56,-6.54,-0.9,34.01,12.65,37.49,4
3517750,0.6,0.4,-0.68,-4.89,-6.81,-0.98,34.01,12.65,37.49,4
3517765,0.61,0.4,-0.68,-5.24,-7.5,-1.27,34.22,12.68,37.57,4
3517775,0.62,0.4,-0.68,-5.36,-7.78,-1.5,34.22,12.68,37.57,4
3517787,0.63,0.39,-0.68,-5.45,-8.42,-1.56,34.22,12.68,37.57,4
3517799,0.65,0.37,-0.68,-5.12,-8.41,-1.11,34.22,12.68,37.57,4
3517810,0.65,0.37,-0.68,-4.38,-8.14,-0.34,34.22,12.68,37.57,4
3517823,0.66,0.37,-0.67,-2.26,-7.25,1.76,34.36,12.98,37.68,4
3517835,0.67,0.37,-0.67,-1.09,-6.43,3.03,34.36,12.98,37.68,4
3517846,0.66,0.38,-0.67,0.28,-5.05,4.39,34.36,12.98,37.68,4
3517858,0.64,0.41,-0.66,2.95,-0.84,6.6,34.36,12.98,37.68,4
3517869,0.63,0.42,-0.66,3.54,1.01,6.99,34.65,13.09,37.69,4
3517881,0.62,0.43,-0.66,3.82,2.34,6.61,34.65,13.09,37.69,4
3517892,0.61,0.43,-0.67,4.9,2.27,4.55,34.65,13.09,37.69,4
3517904,0.61,0.43,-0.67,5.26,1.23,3.57,34.65,13.09,37.69,4
3517915,0.61,0.42,-0.67,6.0,0.37,2.46,34.65,13.2,37.49,4
3517927,0.61,0.43,-0.66,7.14,0.84,0.78,34.65,13.2,37.49,4
3517938,0.61,0.43,-0.66,6.84,2.04,0.11,34.65,13.2,37.49,4
3517949,0.61,0.43,-0.66,5.96,3.25,-0.6,34.65,13.2,37.49,4
3517962,0.61,0.42,-0.67,3.73,4.44,-2.17,34.65,13.19,37.48,4
3517974,0.61,0.41,-0.68,2.84,4.16,-2.82,34.65,13.19,37.48,4
3517984,0.61,0.4,-0.68,2.27,3.26,-3.24,34.65,13.19,37.48,4
3517996,0.62,0.39,-0.68,2.18,1.51,-3.49,34.65,13.19,37.48,4
3518006,0.63,0.38,-0.68,2.71,1.22,-3.38,34.65,13.19,37.48,4
3518017,0.63,0.38,-0.68,3.09,1.1,-2.81,34.58,13.14,37.49,4
3518027,0.64,0.38,-0.67,3.19,1.13,-1.87,34.58,13.14,37.49,4
3518039,0.64,0.38,-0.66,2.8,2.09,0.28,34.58,13.14,37.49,4
3518050,0.64,0.39,-0.65,2.41,3.08,1.38,34.58,13.14,37.49,4
3518063,0.64,0.39,-0.65,1.56,5.89,3.2,34.54,13.19,37.65,4
3518075,0.64,0.4,-0.66,1.14,7.02,3.9,34.54,13.19,37.65,4
3518085,0.64,0.39,-0.67,0.74,7.63,4.34,34.54,13.19,37.65,4
3518097,0.63,0.39,-0.67,0.27,7.9,4.91,34.54,13.19,37.65,4
3518108,0.62,0.39,-0.68,0.13,8.05,5.24,34.54,13.19,37.65,4
3518119,0.61,0.4,-0.68,-0.08,8.4,5.48,34.46,13.24,37.58,4
3518129,0.61,0.4,-0.68,-0.3,8.71,5.53,34.46,13.24,37.58,4
3518140,0.6,0.41,-0.68,-0.81,8.69,4.77,34.46,13.24,37.58,4
3518151,0.59,0.42,-0.68,-0.96,8.45,4.1,34.46,13.24,37.58,4
3518161,0.58,0.42,-0.69,-1.02,8.12,3.27,34.46,13.24,37.58,4
3518172,0.58,0.42,-0.69,-1.05,7.67,2.47,34.24,13.19,37.63,4
3518183,0.58,0.42,-0.69,-1.19,6.21,1.16,34.24,13.19,37.63,4
3518194,0.58,0.41,-0.7,-1.24,5.49,0.6,34.24,13.19,37.63,4
3518205,0.58,0.41,-0.7,-1.43,4.89,0.05,34.24,13.19,37.63,4
3518217,0.58,0.41,-0.69,-2.93,4.04,-0.74,34.07,13.26,37.64,4
3518228,0.59,0.42,-0.69,-4.22,3.76,-0.86,34.07,13.26,37.64,4
3518240,0.59,0.42,-0.68,-5.36,4.15,-1.1,34.07,13.26,37.64,4
3518250,0.59,0.42,-0.68,-6.15,5.2,-1.41,34.07,13.26,37.64,4
3518263,0.59,0.41,-0.7,-7.03,7.3,-1.7,33.98,13.18,37.73,4
3518273,0.59,0.4,-0.71,-7.14,7.39,-1.45,33.98,13.18,37.73,4
3518283,0.59,0.39,-0.72,-7.2,6.94,-1.01,33.98,13.18,37.73,4
3518293,0.59,0.38,-0.72,-6.88,6.65,-0.87,33.98,13.18,37.73,4
3518305,0.59,0.37,-0.73,-4.76,7.02,-1.27,33.98,13.18,37.73,4
3518316,0.59,0.36,-0.73,-3.89,6.9,-1.0,33.71,13.29,37.89,4
3518328,0.59,0.36,-0.73,-2.77,6.2,0.26,33.71,13.29,37.89,4
3518339,0.59,0.36,-0.73,-2.06,5.91,1.25,33.71,13.29,37.89,4
3518351,0.58,0.36,-0.73,-1.36,5.66,2.44,33.71,13.29,37.89,4
3518362,0.58,0.37,-0.73,-0.71,5.43,3.74,33.51,13.45,38.12,4
3518374,0.57,0.39,-0.72,0.34,5.07,5.67,33.51,13.45,38.12,4
3518384,0.57,0.4,-0.72,0.5,4.99,5.98,33.51,13.45,38.12,4
3518394,0.56,0.41,-0.71,0.37,5.05,5.71,33.51,13.45,38.12,4
3518406,0.56,0.42,-0.71,-0.54,4.97,3.97,33.51,13.45,38.12,4
3518418,0.57,0.41,-0.72,-1.11,4.25,3.0,33.25,13.57,38.11,4
3518429,0.56,0.41,-0.72,-1.61,2.92,2.38,33.25,13.57,38.11,4
3518440,0.56,0.4,-0.72,-2.96,0.26,1.46,33.25,13.57,38.11,4
3518451,0.56,0.39,-0.72,-3.59,-0.43,0.87,33.25,13.57,38.11,4
3518462,0.56,0.39,-0.72,-4.21,-0.63,0.34,33.23,13.69,38.18,4
3518475,0.56,0.39,-0.72,-5.89,0.03,-0.65,33.23,13.69,38.18,4
3518486,0.56,0.39,-0.71,-7.35,0.95,-1.62,33.23,13.69,38.18,4
3518497,0.57,0.38,-0.71,-9.04,1.78,-2.87,33.23,13.69,38.18,4
3518508,0.56,0.38,-0.71,-10.76,2.32,-3.89,33.23,13.69,38.18,4
3518521,0.56,0.39,-0.72,-13.33,3.65,-5.74,33.13,13.9,38.42,4
3518531,0.55,0.39,-0.72,-14.08,4.69,-6.86,33.13,13.9,38.42,4
3518543,0.55,0.39,-0.73,-15.21,6.85,-9.22,33.13,13.9,38.42,4
3518554,0.56,0.37,-0.74,-15.76,7.59,-10.31,33.13,13.9,38.42,4
3518565,0.57,0.36,-0.74,-16.33,8.04,-10.89,32.98,14.14,38.47,4
3518578,0.57,0.35,-0.76,-15.4,8.51,-10.12,32.98,14.14,38.47,4
3518589,0.57,0.33,-0.77,-13.22,8.59,-8.94,32.98,14.14,38.47,4
3518601,0.57,0.32,-0.78,-10.17,8.54,-7.45,32.98,14.14,38.47,4
3518612,0.58,0.32,-0.78,-6.84,8.38,-5.77,32.73,14.59,38.37,4
3518623,0.58,0.32,-0.77,-3.59,8.04,-3.76,32.73,14.59,38.37,4
3518633,0.58,0.32,-0.77,-0.61,8.12,-1.26,32.73,14.59,38.37,4
3518643,0.57,0.33,-0.77,1.69,7.93,1.01,32.73,14.59,38.37,4
3518653,0.57,0.34,-0.77,3.31,7.48,2.83,32.73,14.59,38.37,4
3518665,0.56,0.35,-0.76,5.13,6.1,4.55,32.38,14.88,38.66,4
3518677,0.55,0.35,-0.76,5.26,5.21,4.8,32.38,14.88,38.66,4
3518687,0.54,0.36,-0.76,4.79,4.14,4.82,32.38,14.88,38.66,4
3518700,0.52,0.37,-0.76,2.19,0.93,4.17,32.38,14.88,38.66,4
3518712,0.52,0.36,-0.76,0.28,-1.09,2.93,32.18,15.05,38.86,4
3518726,0.52,0.36,-0.77,-3.13,-6.7,-0.29,32.18,15.05,38.86,4
3518738,0.53,0.36,-0.77,-3.97,-9.02,-1.57,32.18,15.05,38.86,4
3518751,0.54,0.34,-0.77,-2.68,-8.81,-1.88,32.18,15.05,38.86,4
3518762,0.55,0.34,-0.77,-1.47,-7.03,-1.4,32.03,15.22,38.79,4
3518773,0.55,0.33,-0.77,-0.46,-5.39,-0.96,32.03,15.22,38.79,4
3518784,0.56,0.33,-0.77,1.02,-3.81,-0.1,32.03,15.22,38.79,4
3518795,0.56,0.33,-0.76,1.65,-3.09,0.42,32.03,15.22,38.79,4
3518806,0.56,0.34,-0.76,2.47,-2.06,0.99,32.03,15.22,38.79,4
3518818,0.56,0.34,-0.76,4.18,0.04,2.03,31.89,15.41,38.93,4
3518829,0.56,0.34,-0.76,4.79,0.53,2.32,31.89,15.41,38.93,4
3518841,0.56,0.35,-0.76,5.18,0.36,2.5,31.89,15.41,38.93,4
3518851,0.56,0.34,-0.77,5.56,-0.29,2.67,31.89,15.41,38.93,4
3518864,0.56,0.35,-0.76,6.68,-1.49,2.52,31.89,15.5,39.08,4
3518875,0.56,0.35,-0.76,7.11,-1.83,2.25,31.89,15.5,39.08,4
3518889,0.57,0.35,-0.75,7.05,-2.49,1.83,31.89,15.5,39.08,4
3518900,0.57,0.35,-0.75,6.88,-2.93,1.68,31.89,15.5,39.08,4
3518911,0.57,0.36,-0.75,6.64,-3.26,1.51,31.86,15.41,39.28,4
3518923,0.57,0.36,-0.74,6.25,-3.7,1.26,31.86,15.41,39.28,4
3518935,0.57,0.36,-0.74,6.05,-3.8,1.16,31.86,15.41,39.28,4
3518949,0.56,0.36,-0.74,5.99,-3.56,0.99,31.86,15.41,39.28,4
3518961,0.56,0.37,-0.74,5.74,-3.26,0.81,31.88,15.38,39.2,4
3518974,0.56,0.37,-0.74,4.85,-2.88,0.58,31.88,15.38,39.2,4
3518986,0.56,0.37,-0.75,4.4,-2.71,0.56,31.88,15.38,39.2,4
3518998,0.56,0.37,-0.75,4.06,-2.82,0.06,31.88,15.38,39.2,4
3519009,0.55,0.37,-0.75,3.77,-3.18,-0.37,31.88,15.38,39.2,4
3519020,0.55,0.37,-0.74,3.45,-3.42,-0.77,31.76,15.36,38.86,4
