time,acc_x,acc_y,acc_z,gyro_x,gyro_y,gyro_z,mag_x,mag_y,mag_z,label
3264830,-0.05,0.14,0.98,12.01,40.99,-29.43,7.6,-14.61,-22.69,4
3264842,-0.03,0.14,0.99,8.09,44.56,-36.02,7.6,-14.61,-22.69,4
3264853,-0.02,0.13,0.99,-0.45,47.2,-44.42,7.6,-14.61,-22.69,4
3264864,0.01,0.1,0.98,-2.7,45.68,-44.37,7.6,-14.61,-22.69,4
3264875,0.03,0.08,0.97,-3.33,42.68,-40.91,7.6,-14.61,-22.69,4
3264889,0.05,0.08,0.98,-5.35,32.35,-27.8,8.97,-14.23,-23.37,4
3264899,0.04,0.09,0.98,-7.31,27.06,-20.9,8.97,-14.23,-23.37,4
3264910,0.04,0.11,0.99,-8.82,22.9,-15.08,8.97,-14.23,-23.37,4
3264921,0.03,0.13,0.99,-11.67,17.47,-9.08,8.97,-14.23,-23.37,4
3264933,0.05,0.17,1.0,-12.61,14.64,-7.6,10.52,-14.1,-23.84,4
3264944,0.06,0.17,0.99,-12.48,11.14,-5.75,10.52,-14.1,-23.84,4
3264954,0.08,0.17,0.98,-11.44,7.89,-3.46,10.52,-14.1,-23.84,4
3264966,0.09,0.17,0.97,-8.4,0.23,1.38,10.52,-14.1,-23.84,4
3264977,0.09,0.17,0.98,-7.64,-3.96,3.62,10.52,-14.1,-23.84,4
3264989,0.08,0.17,0.98,-8.08,-7.82,5.08,11.9,-14.22,-23.99,4
3265001,0.07,0.19,0.98,-11.25,-14.55,5.41,11.9,-14.22,-23.99,4
3265011,0.06,0.2,0.98,-11.76,-17.5,5.49,11.9,-14.22,-23.99,4
3265022,0.05,0.21,0.98,-10.58,-20.15,5.95,11.9,-14.22,-23.99,4
3265035,0.04,0.21,0.98,-6.72,-24.52,7.29,12.76,-14.14,-24.4,4
3265047,0.03,0.2,0.98,-6.18,-25.57,6.91,12.76,-14.14,-24.4,4
3265061,0.02,0.17,0.97,-8.55,-25.93,3.51,12.76,-14.14,-24.4,4
3265071,0.02,0.17,0.97,-10.81,-26.39,1.57,12.76,-14.14,-24.4,4
3265082,0.02,0.17,0.97,-13.23,-27.64,0.13,13.11,-14.18,-24.57,4
3265093,0.01,0.19,0.98,-18.32,-33.73,-0.72,13.11,-14.18,-24.57,4
3265104,-0.02,0.19,1.0,-21.83,-38.33,-0.91,13.11,-14.18,-24.57,4
3265116,-0.04,0.19,1.0,-25.52,-42.54,-1.59,13.11,-14.18,-24.57,4
3265128,-0.04,0.19,0.99,-30.98,-45.7,-3.91,13.28,-14.38,-24.49,4
3265139,-0.04,0.2,0.97,-32.44,-44.79,-4.15,13.28,-14.38,-24.49,4
3265151,-0.03,0.2,0.95,-32.89,-43.14,-3.48,13.28,-14.38,-24.49,4
3265162,-0.02,0.21,0.93,-31.25,-40.07,0.8,13.28,-14.38,-24.49,4
3265173,-0.02,0.23,0.91,-29.25,-38.77,3.37,13.28,-14.38,-24.49,4
3265184,-0.02,0.24,0.91,-27.36,-37.85,5.75,13.07,-14.83,-24.28,4
3265195,-0.03,0.25,0.91,-25.94,-37.68,7.72,13.07,-14.83,-24.28,4
3265207,-0.04,0.26,0.92,-25.87,-40.03,9.69,13.07,-14.83,-24.28,4
3265219,-0.05,0.27,0.92,-27.48,-43.17,10.06,13.07,-14.83,-24.28,4
3265232,-0.08,0.28,0.93,-33.25,-52.52,9.84,12.55,-15.16,-23.67,4
3265243,-0.11,0.3,0.92,-36.57,-57.07,9.17,12.55,-15.16,-23.67,4
3265254,-0.12,0.3,0.93,-39.28,-60.75,9.5,12.55,-15.16,-23.67,4
3265265,-0.14,0.31,0.93,-46.88,-66.9,13.96,12.55,-15.16,-23.67,4
3265276,-0.17,0.29,0.92,-50.5,-69.23,17.03,12.55,-15.16,-23.67,4
3265287,-0.18,0.29,0.92,-54.7,-71.33,20.81,11.72,-15.78,-23.15,4
3265301,-0.2,0.31,0.9,-62.04,-72.96,27.2,11.72,-15.78,-23.15,4
3265313,-0.22,0.33,0.88,-64.15,-72.72,30.14,11.72,-15.78,-23.15,4
3265327,-0.23,0.36,0.86,-64.43,-71.02,35.0,11.72,-15.78,-23.15,4
3265338,-0.24,0.38,0.85,-64.81,-70.2,37.12,10.55,-16.54,-21.73,4
3265352,-0.27,0.41,0.82,-62.73,-66.88,37.8,10.55,-16.54,-21.73,4
3265364,-0.29,0.42,0.81,-60.44,-64.19,36.29,10.55,-16.54,-21.73,4
3265377,-0.3,0.43,0.8,-52.2,-56.24,29.77,10.55,-16.54,-21.73,4
3265389,-0.32,0.45,0.79,-47.72,-52.17,25.81,8.96,-17.35,-20.11,4
3265401,-0.32,0.46,0.79,-44.5,-49.32,22.34,8.96,-17.35,-20.11,4
3265413,-0.34,0.47,0.78,-38.21,-45.79,16.35,8.96,-17.35,-20.11,4
3265425,-0.35,0.48,0.77,-31.66,-42.84,13.35,8.96,-17.35,-20.11,4
3265437,-0.36,0.47,0.78,-18.59,-34.5,8.85,7.44,-17.97,-18.37,4
3265448,-0.36,0.45,0.78,-14.22,-30.83,7.69,7.44,-17.97,-18.37,4
3265460,-0.36,0.44,0.77,-10.99,-28.0,7.32,7.44,-17.97,-18.37,4
3265471,-0.37,0.43,0.77,-6.92,-23.91,7.99,7.44,-17.97,-18.37,4
3265483,-0.39,0.44,0.77,-6.16,-22.75,8.7,5.99,-18.49,-16.83,4
3265494,-0.4,0.45,0.77,-6.2,-22.48,9.36,5.99,-18.49,-16.83,4
3265507,-0.43,0.47,0.77,-7.46,-24.12,9.07,5.99,-18.49,-16.83,4
3265519,-0.43,0.48,0.77,-8.26,-25.35,7.94,5.99,-18.49,-16.83,4
3265532,-0.43,0.47,0.76,-9.54,-27.51,5.13,4.73,-18.93,-15.57,4
3265544,-0.42,0.46,0.76,-9.05,-27.8,3.99,4.73,-18.93,-15.57,4
3265557,-0.42,0.45,0.75,-6.98,-25.92,3.23,4.73,-18.93,-15.57,4
3265568,-0.42,0.45,0.75,-5.55,-23.63,3.07,4.73,-18.93,-15.57,4
3265579,-0.42,0.45,0.75,-4.07,-20.69,2.83,3.6,-19.23,-14.4,4
3265593,-0.43,0.46,0.74,-1.23,-14.7,3.13,3.6,-19.23,-14.4,4
3265605,-0.44,0.46,0.74,1.1,-11.42,2.93,3.6,-19.23,-14.4,4
3265618,-0.44,0.48,0.74,6.31,-5.16,2.8,3.6,-19.23,-14.4,4
3265630,-0.43,0.48,0.74,8.4,-2.64,2.88,2.87,-19.63,-13.38,4
3265640,-0.42,0.48,0.74,9.93,-0.79,3.3,2.87,-19.63,-13.38,4
3265653,-0.41,0.46,0.74,10.89,0.5,4.35,2.87,-19.63,-13.38,4
3265665,-0.41,0.45,0.74,10.76,0.11,3.68,2.87,-19.63,-13.38,4
3265679,-0.42,0.44,0.75,9.94,-1.29,0.35,2.14,-19.89,-12.72,4
3265690,-0.43,0.45,0.75,9.4,-2.21,-1.22,2.14,-19.89,-12.72,4
3265702,-0.43,0.45,0.75,10.41,-3.39,-2.2,2.14,-19.89,-12.72,4
3265714,-0.43,0.46,0.75,12.37,-3.22,-0.78,2.14,-19.89,-12.72,4
3265726,-0.44,0.46,0.75,14.23,-2.71,1.66,2.14,-19.89,-12.72,4
3265739,-0.44,0.44,0.76,16.3,-2.01,6.5,1.69,-19.95,-12.28,4
3265751,-0.44,0.43,0.76,16.15,-2.14,8.28,1.69,-19.95,-12.28,4
3265761,-0.44,0.42,0.76,15.15,-2.57,9.23,1.69,-19.95,-12.28,4
3265772,-0.45,0.42,0.76,11.5,-4.31,7.84,1.69,-19.95,-12.28,4
3265784,-0.45,0.43,0.76,9.49,-5.53,5.8,1.31,-20.0,-12.0,4
3265795,-0.45,0.43,0.76,7.99,-6.83,3.7,1.31,-20.0,-12.0,4
3265808,-0.44,0.43,0.76,5.77,-9.61,1.38,1.31,-20.0,-12.0,4
3265818,-0.44,0.43,0.76,4.12,-11.14,1.79,1.31,-20.0,-12.0,4
3265829,-0.44,0.44,0.76,2.0,-13.07,3.27,0.93,-20.05,-11.92,4
3265842,-0.44,0.44,0.75,-2.13,-17.53,7.02,0.93,-20.05,-11.92,4
3265853,-0.44,0.43,0.75,-3.5,-19.23,8.58,0.93,-20.05,-11.92,4
3265864,-0.45,0.43,0.74,-4.06,-20.17,9.47,0.93,-20.05,-11.92,4
3265877,-0.47,0.43,0.74,-3.22,-19.86,9.22,0.44,-20.09,-11.44,4
3265888,-0.48,0.44,0.74,-2.44,-19.25,8.75,0.44,-20.09,-11.44,4
3265900,-0.48,0.44,0.74,-0.41,-17.7,9.02,0.44,-20.09,-11.44,4
3265912,-0.48,0.44,0.73,0.92,-16.91,9.32,0.44,-20.09,-11.44,4
3265924,-0.48,0.43,0.74,1.98,-15.92,9.08,0.44,-20.09,-11.44,4
3265937,-0.51,0.42,0.74,3.03,-13.5,5.07,0.02,-19.93,-11.0,4
3265949,-0.52,0.42,0.74,3.6,-12.18,1.72,0.02,-19.93,-11.0,4
3265963,-0.52,0.42,0.74,4.27,-9.03,-4.51,0.02,-19.93,-11.0,4
3265974,-0.52,0.44,0.74,4.57,-7.57,-6.62,0.02,-19.93,-11.0,4
3265988,-0.5,0.41,0.74,4.19,-4.57,-8.62,-0.42,-19.91,-10.79,4
3265999,-0.48,0.42,0.74,3.83,-3.22,-6.9,-0.42,-19.91,-10.79,4
3266013,-0.47,0.42,0.73,3.04,-1.06,-1.61,-0.42,-19.91,-10.79,4
3266025,-0.47,0.42,0.73,2.79,-0.55,0.2,-0.42,-19.91,-10.79,4
3266038,-0.47,0.42,0.73,3.38,0.36,0.83,-0.8,-19.96,-10.78,4
3266049,-0.48,0.42,0.73,3.15,1.02,0.83,-0.8,-19.96,-10.78,4
3266060,-0.48,0.42,0.74,2.68,1.39,1.39,-0.8,-19.96,-10.78,4
3266071,-0.48,0.42,0.74,2.14,1.46,2.46,-0.8,-19.96,-10.78,4
3266084,-0.49,0.42,0.74,0.93,0.91,4.13,-1.08,-19.92,-10.45,4
3266095,-0.49,0.41,0.74,0.52,0.15,3.78,-1.08,-19.92,-10.45,4
3266106,-0.49,0.42,0.74,-0.7,-2.51,1.13,-1.08,-19.92,-10.45,4
3266118,-0.49,0.42,0.74,-1.76,-4.15,-0.18,-1.08,-19.92,-10.45,4
3266129,-0.5,0.42,0.74,-2.98,-5.67,-0.89,-1.29,-19.95,-10.43,4
3266143,-0.5,0.42,0.74,-5.36,-8.06,-1.43,-1.29,-19.95,-10.43,4
3266155,-0.5,0.42,0.74,-6.26,-8.69,-1.52,-1.29,-19.95,-10.43,4
3266169,-0.49,0.44,0.73,-7.56,-9.77,-0.9,-1.29,-19.95,-10.43,4
3266180,-0.49,0.44,0.72,-7.81,-10.28,-0.11,-1.51,-19.96,-10.2,4
3266191,-0.5,0.45,0.72,-7.48,-10.4,0.74,-1.51,-19.96,-10.2,4
3266203,-0.5,0.46,0.72,-4.3,-8.78,2.06,-1.51,-19.96,-10.2,4
3266215,-0.5,0.46,0.72,-2.53,-7.62,2.71,-1.51,-19.96,-10.2,4
3266229,-0.49,0.45,0.71,-0.12,-6.04,3.88,-1.78,-19.89,-10.19,4
3266240,-0.49,0.45,0.71,1.01,-5.74,4.45,-1.78,-19.89,-10.19,4
3266252,-0.5,0.44,0.71,3.7,-4.96,4.62,-1.78,-19.89,-10.19,4
3266264,-0.52,0.44,0.72,5.17,-4.36,3.85,-1.78,-19.89,-10.19,4
3266277,-0.53,0.43,0.72,6.05,-3.62,2.65,-1.92,-19.72,-9.94,4
3266289,-0.53,0.43,0.73,6.4,-1.32,0.2,-1.92,-19.72,-9.94,4
3266301,-0.53,0.43,0.73,6.39,-0.07,-0.53,-1.92,-19.72,-9.94,4
3266315,-0.51,0.42,0.73,5.88,1.93,-0.03,-1.92,-19.72,-9.94,4
3266327,-0.5,0.42,0.73,5.48,3.19,0.58,-2.02,-19.72,-9.81,4
3266338,-0.5,0.42,0.73,6.0,8.53,0.08,-2.02,-19.72,-9.81,4
3266350,-0.5,0.42,0.73,6.41,11.63,-0.38,-2.02,-19.72,-9.81,4
3266361,-0.5,0.42,0.73,6.45,13.82,-0.62,-2.02,-19.72,-9.81,4
3266373,-0.5,0.42,0.73,5.81,15.6,-0.5,-2.02,-19.72,-9.81,4
3266385,-0.49,0.41,0.73,5.76,16.48,-1.05,-2.03,-19.84,-9.89,4
3266396,-0.49,0.41,0.73,5.66,17.38,-2.42,-2.03,-19.84,-9.89,4
3266408,-0.48,0.41,0.74,4.95,16.89,-6.05,-2.03,-19.84,-9.89,4
3266420,-0.47,0.42,0.74,4.18,15.03,-7.04,-2.03,-19.84,-9.89,4
3266433,-0.47,0.42,0.74,2.5,10.32,-7.0,-1.93,-19.8,-9.94,4
3266444,-0.47,0.43,0.74,2.12,8.37,-6.63,-1.93,-19.8,-9.94,4
3266456,-0.48,0.44,0.74,2.02,6.72,-6.26,-1.93,-19.8,-9.94,4
3266467,-0.48,0.44,0.74,2.96,4.42,-6.41,-1.93,-19.8,-9.94,4
3266479,-0.48,0.44,0.74,3.59,3.74,-6.88,-1.85,-19.81,-10.08,4
3266491,-0.48,0.44,0.74,4.02,3.05,-7.03,-1.85,-19.81,-10.08,4
3266503,-0.46,0.43,0.74,4.07,1.32,-5.85,-1.85,-19.81,-10.08,4
3266515,-0.46,0.43,0.74,3.87,0.56,-4.91,-1.85,-19.81,-10.08,4
3266526,-0.46,0.43,0.74,3.65,0.46,-4.2,-1.76,-19.84,-10.27,4
3266537,-0.46,0.43,0.74,3.72,1.13,-3.72,-1.76,-19.84,-10.27,4
3266548,-0.46,0.43,0.75,4.15,2.2,-2.97,-1.76,-19.84,-10.27,4
3266559,-0.46,0.43,0.75,4.54,2.9,-2.08,-1.76,-19.84,-10.27,4
3266572,-0.45,0.43,0.75,4.65,2.91,-0.66,-1.76,-19.84,-10.27,4
3266583,-0.45,0.43,0.75,4.48,2.36,-0.07,-1.56,-19.75,-10.52,4
3266594,-0.45,0.43,0.75,4.21,1.68,0.62,-1.56,-19.75,-10.52,4
3266606,-0.46,0.43,0.75,3.87,0.74,1.65,-1.56,-19.75,-10.52,4
3266618,-0.47,0.43,0.75,3.97,0.66,1.23,-1.56,-19.75,-10.52,4
3266630,-0.47,0.43,0.75,3.86,0.49,-0.12,-1.37,-19.78,-10.66,4
3266641,-0.47,0.42,0.76,3.52,0.17,-0.62,-1.37,-19.78,-10.66,4
3266653,-0.47,0.42,0.76,3.11,-0.42,-1.0,-1.37,-19.78,-10.66,4
3266667,-0.46,0.43,0.75,3.0,-2.36,-1.5,-1.37,-19.78,-10.66,4
3266678,-0.46,0.44,0.75,3.56,-3.54,-2.02,-1.22,-19.77,-10.85,4
3266692,-0.45,0.42,0.74,4.38,-5.69,-2.64,-1.22,-19.77,-10.85,4
3266704,-0.45,0.42,0.75,5.23,-7.02,-1.83,-1.22,-19.77,-10.85,4
3266718,-0.44,0.41,0.75,6.07,-9.37,0.85,-1.22,-19.77,-10.85,4
3266729,-0.44,0.43,0.75,5.86,-10.56,2.16,-1.16,-19.83,-11.06,4
3266742,-0.45,0.43,0.75,6.4,-13.91,3.42,-1.16,-19.83,-11.06,4
3266753,-0.47,0.43,0.74,6.37,-15.34,4.32,-1.16,-19.83,-11.06,4
3266765,-0.48,0.43,0.75,6.53,-16.25,5.98,-1.16,-19.83,-11.06,4
3266777,-0.48,0.42,0.75,5.5,-16.67,9.76,-1.14,-19.81,-11.27,4
3266789,-0.49,0.42,0.75,4.1,-16.59,11.21,-1.14,-19.81,-11.27,4
3266801,-0.49,0.41,0.75,2.51,-16.58,12.24,-1.14,-19.81,-11.27,4
3266813,-0.5,0.4,0.75,0.66,-15.47,11.9,-1.14,-19.81,-11.27,4
3266826,-0.5,0.41,0.74,1.01,-13.87,10.26,-1.39,-19.74,-10.95,4
3266838,-0.5,0.42,0.73,2.33,-11.16,6.29,-1.39,-19.74,-10.95,4
3266850,-0.5,0.42,0.73,3.2,-10.77,4.59,-1.39,-19.74,-10.95,4
3266864,-0.48,0.41,0.74,4.08,-10.6,4.29,-1.39,-19.74,-10.95,4
3266876,-0.48,0.41,0.74,3.96,-10.28,5.88,-1.57,-19.73,-10.67,4
3266888,-0.49,0.41,0.74,3.46,-8.91,8.09,-1.57,-19.73,-10.67,4
3266899,-0.51,0.4,0.74,2.94,-8.25,7.96,-1.57,-19.73,-10.67,4
3266910,-0.51,0.4,0.74,2.22,-7.85,7.18,-1.57,-19.73,-10.67,4
3266924,-0.52,0.4,0.74,0.1,-7.63,4.74,-1.57,-19.73,-10.67,4
3266936,-0.52,0.4,0.74,-0.71,-7.47,3.6,-1.89,-19.62,-10.86,4
3266949,-0.52,0.41,0.73,-0.9,-6.28,2.59,-1.89,-19.62,-10.86,4
3266960,-0.53,0.42,0.73,-0.28,-5.16,2.54,-1.89,-19.62,-10.86,4
3266972,-0.53,0.42,0.73,0.6,-3.93,2.55,-1.89,-19.62,-10.86,4
3266985,-0.52,0.41,0.73,1.88,-2.26,2.81,-2.15,-19.62,-10.8,4
3266996,-0.52,0.4,0.73,2.05,-1.75,2.77,-2.15,-19.62,-10.8,4
3267008,-0.51,0.4,0.73,1.76,-1.47,1.98,-2.15,-19.62,-10.8,4
3267019,-0.51,0.4,0.73,1.67,-1.55,1.55,-2.15,-19.62,-10.8,4
3267030,-0.51,0.4,0.72,1.72,-1.57,1.37,-2.22,-19.53,-10.71,4
3267041,-0.51,0.41,0.72,2.03,-1.43,1.54,-2.22,-19.53,-10.71,4
3267053,-0.51,0.41,0.73,2.71,-0.94,3.33,-2.22,-19.53,-10.71,4
3267065,-0.51,0.4,0.73,2.81,-0.8,4.83,-2.22,-19.53,-10.71,4
3267076,-0.51,0.4,0.73,2.81,-0.79,6.2,-2.29,-19.49,-10.78,4
3267087,-0.51,0.4,0.73,2.81,-1.03,7.33,-2.29,-19.49,-10.78,4
3267099,-0.51,0.4,0.73,2.74,-1.45,8.24,-2.29,-19.49,-10.78,4
3267112,-0.52,0.4,0.74,3.2,-1.71,9.08,-2.29,-19.49,-10.78,4
3267123,-0.53,0.4,0.74,3.21,-1.83,9.23,-2.29,-19.49,-10.78,4
3267134,-0.53,0.4,0.74,3.08,-2.02,9.38,-2.52,-19.53,-10.67,4
3267147,-0.53,0.39,0.73,2.59,-2.53,9.19,-2.52,-19.53,-10.67,4
3267158,-0.54,0.39,0.73,2.33,-2.72,8.62,-2.52,-19.53,-10.67,4
3267168,-0.54,0.39,0.73,2.0,-2.85,7.82,-2.52,-19.53,-10.67,4
3267180,-0.54,0.39,0.73,1.31,-2.87,5.93,-2.71,-19.45,-10.74,4
3267191,-0.54,0.39,0.73,0.83,-2.83,5.19,-2.71,-19.45,-10.74,4
3267203,-0.54,0.39,0.73,0.26,-2.81,4.55,-2.71,-19.45,-10.74,4
3267214,-0.54,0.39,0.73,-0.51,-2.87,3.77,-2.71,-19.45,-10.74,4
3267226,-0.53,0.4,0.73,-0.52,-2.87,3.95,-2.84,-19.3,-10.69,4
3267238,-0.53,0.4,0.73,-0.33,-2.87,4.53,-2.84,-19.3,-10.69,4
3267250,-0.53,0.39,0.73,0.35,-2.62,5.77,-2.84,-19.3,-10.69,4
3267262,-0.53,0.39,0.73,0.63,-2.68,6.21,-2.84,-19.3,-10.69,4
3267277,-0.54,0.38,0.72,1.08,-2.71,5.73,-3.14,-19.14,-10.49,4
3267289,-0.55,0.38,0.72,1.35,-2.59,4.9,-3.14,-19.14,-10.49,4
3267300,-0.55,0.38,0.72,1.29,-2.22,3.58,-3.14,-19.14,-10.49,4
3267311,-0.55,0.38,0.72,1.22,-2.05,3.2,-3.14,-19.14,-10.49,4
3267323,-0.55,0.38,0.72,1.19,-1.82,2.91,-3.14,-19.14,-10.49,4
3267336,-0.54,0.38,0.72,1.17,-1.53,1.53,-3.36,-18.86,-10.47,4
3267347,-0.54,0.38,0.72,1.16,-1.64,0.56,-3.36,-18.86,-10.47,4
3267358,-0.54,0.39,0.73,1.19,-1.78,-0.17,-3.36,-18.86,-10.47,4
3267371,-0.54,0.39,0.73,1.61,-1.62,-0.84,-3.36,-18.86,-10.47,4
3267382,-0.54,0.39,0.73,2.1,-1.28,-0.81,-3.56,-18.74,-10.45,4
3267396,-0.54,0.39,0.73,2.56,-0.63,-0.36,-3.56,-18.74,-10.45,4
3267408,-0.54,0.39,0.73,2.42,-0.62,-0.18,-3.56,-18.74,-10.45,4
3267422,-0.53,0.39,0.73,1.94,-0.95,0.49,-3.56,-18.74,-10.45,4
3267433,-0.53,0.39,0.72,1.69,-1.16,1.14,-3.67,-18.7,-10.52,4
3267446,-0.54,0.39,0.72,1.83,-1.39,2.25,-3.67,-18.7,-10.52,4
3267457,-0.54,0.38,0.72,2.09,-1.28,2.22,-3.67,-18.7,-10.52,4
3267469,-0.55,0.38,0.73,2.15,-1.24,1.87,-3.67,-18.7,-10.52,4
3267482,-0.54,0.38,0.73,1.96,-1.11,0.7,-3.68,-18.6,-10.48,4
3267494,-0.54,0.38,0.73,1.63,-1.01,0.17,-3.68,-18.6,-10.48,4
3267508,-0.54,0.38,0.73,0.71,-1.02,-0.4,-3.68,-18.6,-10.48,4
3267519,-0.54,0.38,0.73,0.31,-1.26,-0.31,-3.68,-18.6,-10.48,4
3267532,-0.54,0.38,0.73,-0.38,-1.63,0.21,-3.77,-18.61,-10.56,4
3267543,-0.54,0.38,0.72,-0.4,-1.64,0.29,-3.77,-18.61,-10.56,4
3267555,-0.54,0.38,0.72,-0.22,-1.57,0.22,-3.77,-18.61,-10.56,4
3267568,-0.54,0.39,0.72,0.1,-1.24,0.19,-3.77,-18.61,-10.56,4
3267579,-0.54,0.4,0.72,0.2,-1.11,0.31,-3.78,-18.66,-10.42,4
3267592,-0.54,0.4,0.72,0.7,-0.42,0.7,-3.78,-18.66,-10.42,4
3267603,-0.53,0.4,0.72,0.91,-0.07,1.39,-3.78,-18.66,-10.42,4
3267615,-0.53,0.4,0.72,1.15,0.05,2.29,-3.78,-18.66,-10.42,4
3267628,-0.53,0.4,0.72,1.6,-0.09,4.43,-3.89,-18.62,-10.42,4
3267640,-0.53,0.39,0.73,1.8,-0.23,5.3,-3.89,-18.62,-10.42,4
3267654,-0.54,0.38,0.73,2.31,-0.04,5.55,-3.89,-18.62,-10.42,4
3267666,-0.54,0.37,0.73,2.34,0.01,5.08,-3.89,-18.62,-10.42,4
3267678,-0.55,0.37,0.73,1.53,-0.27,3.45,-3.99,-18.59,-10.31,4
3267689,-0.54,0.37,0.73,1.19,-0.43,2.7,-3.99,-18.59,-10.31,4
3267700,-0.54,0.37,0.73,0.93,-0.51,2.33,-3.99,-18.59,-10.31,4
3267711,-0.54,0.38,0.73,0.74,-0.7,2.4,-3.99,-18.59,-10.31,4
3267723,-0.54,0.38,0.73,0.81,-0.89,3.21,-3.99,-18.59,-10.31,4
3267734,-0.54,0.38,0.73,0.95,-0.87,3.75,-4.01,-18.62,-10.4,4
3267747,-0.54,0.38,0.72,1.37,-0.89,4.7,-4.01,-18.62,-10.4,4
3267758,-0.54,0.38,0.72,1.44,-0.89,5.09,-4.01,-18.62,-10.4,4
3267770,-0.55,0.38,0.72,1.35,-0.87,5.33,-4.01,-18.62,-10.4,4
3267783,-0.55,0.38,0.72,1.31,-0.92,4.18,-4.15,-18.66,-10.37,4
3267795,-0.55,0.38,0.72,1.29,-0.85,3.09,-4.15,-18.66,-10.37,4
3267808,-0.54,0.38,0.72,1.26,-0.86,1.68,-4.15,-18.66,-10.37,4
3267820,-0.54,0.38,0.72,1.43,-0.76,1.73,-4.15,-18.66,-10.37,4
3267832,-0.54,0.38,0.72,1.52,-0.47,3.12,-4.24,-18.54,-10.23,4
3267843,-0.54,0.38,0.72,1.48,-0.41,4.12,-4.24,-18.54,-10.23,4
3267855,-0.54,0.38,0.72,1.41,-0.52,5.04,-4.24,-18.54,-10.23,4
3267869,-0.54,0.38,0.72,1.42,-1.04,6.02,-4.24,-18.54,-10.23,4
3267880,-0.54,0.38,0.72,1.59,-1.31,6.07,-4.37,-18.43,-10.24,4
3267894,-0.54,0.37,0.73,1.97,-1.67,5.54,-4.37,-18.43,-10.24,4
3267906,-0.55,0.37,0.73,2.06,-1.76,5.18,-4.37,-18.43,-10.24,4
3267918,-0.55,0.37,0.73,2.02,-1.83,4.58,-4.37,-18.43,-10.24,4
3267931,-0.55,0.37,0.73,1.88,-1.75,4.28,-4.51,-18.34,-9.94,4
3267942,-0.55,0.37,0.73,1.56,-1.69,3.98,-4.51,-18.34,-9.94,4
3267954,-0.56,0.37,0.73,0.9,-1.48,2.64,-4.51,-18.34,-9.94,4
3267966,-0.56,0.37,0.73,0.66,-1.3,1.67,-4.51,-18.34,-9.94,4
3267978,-0.55,0.37,0.73,0.25,-1.11,0.13,-4.65,-18.26,-9.91,4
3267989,-0.55,0.38,0.72,0.21,-1.02,-0.3,-4.65,-18.26,-9.91,4
3268000,-0.55,0.38,0.72,0.35,-0.83,-0.37,-4.65,-18.26,-9.91,4
3268013,-0.55,0.38,0.72,1.02,-0.36,0.47,-4.65,-18.26,-9.91,4
3268025,-0.55,0.38,0.72,1.4,-0.19,0.91,-4.66,-18.15,-10.04,4
3268036,-0.55,0.38,0.72,1.67,-0.17,1.02,-4.66,-18.15,-10.04,4
3268049,-0.55,0.37,0.72,1.79,-0.56,0.24,-4.66,-18.15,-10.04,4
3268060,-0.55,0.37,0.72,1.66,-0.94,-0.15,-4.66,-18.15,-10.04,4
3268071,-0.55,0.38,0.72,1.52,-1.23,-0.38,-4.66,-18.15,-10.04,4
3268084,-0.55,0.38,0.72,1.51,-1.71,-0.31,-4.73,-18.14,-10.13,4
3268096,-0.55,0.37,0.72,1.59,-1.89,-0.09,-4.73,-18.14,-10.13,4
3268109,-0.55,0.37,0.72,1.45,-2.19,0.28,-4.73,-18.14,-10.13,4
3268121,-0.55,0.37,0.72,1.28,-2.26,0.22,-4.73,-18.14,-10.13,4
3268134,-0.55,0.37,0.72,1.12,-2.18,-0.35,-4.7,-18.21,-9.88,4
3268145,-0.55,0.38,0.73,1.18,-1.93,-0.58,-4.7,-18.21,-9.88,4
3268156,-0.55,0.38,0.73,1.2,-1.65,-0.46,-4.7,-18.21,-9.88,4
3268169,-0.54,0.38,0.72,1.09,-1.33,0.59,-4.7,-18.21,-9.88,4
3268180,-0.54,0.38,0.72,1.13,-1.16,1.09,-4.7,-18.19,-9.85,4
3268193,-0.54,0.38,0.72,1.33,-1.05,1.56,-4.7,-18.19,-9.85,4
3268204,-0.55,0.38,0.72,1.6,-1.09,1.36,-4.7,-18.19,-9.85,4
3268216,-0.55,0.38,0.72,1.83,-1.12,1.1,-4.7,-18.19,-9.85,4
3268229,-0.55,0.37,0.72,2.09,-1.11,0.69,-4.81,-18.09,-9.83,4
3268241,-0.55,0.37,0.72,2.02,-1.22,0.48,-4.81,-18.09,-9.83,4
3268253,-0.55,0.37,0.72,1.66,-1.44,-0.14,-4.81,-18.09,-9.83,4
3268265,-0.55,0.37,0.72,1.54,-1.51,-0.47,-4.81,-18.09,-9.83,4
3268277,-0.55,0.37,0.72,1.52,-1.53,-0.8,-4.89,-18.1,-9.74,4
3268289,-0.55,0.37,0.72,1.5,-1.46,-1.18,-4.89,-18.1,-9.74,4
3268301,-0.56,0.37,0.72,1.4,-1.37,-1.3,-4.89,-18.1,-9.74,4
3268315,-0.56,0.38,0.72,1.27,-1.23,-1.67,-4.89,-18.1,-9.74,4
3268326,-0.55,0.38,0.72,1.33,-1.14,-1.94,-4.94,-17.96,-9.99,4
3268339,-0.55,0.38,0.72,1.21,-1.09,-1.9,-4.94,-17.96,-9.99,4
3268350,-0.54,0.38,0.72,1.15,-1.13,-1.48,-4.94,-17.96,-9.99,4
3268362,-0.54,0.38,0.72,1.26,-1.12,-0.84,-4.94,-17.96,-9.99,4
3268374,-0.54,0.38,0.72,1.69,-1.02,0.54,-5.1,-17.98,-10.14,4
3268385,-0.54,0.38,0.72,1.91,-1.05,1.0,-5.1,-17.98,-10.14,4
3268396,-0.55,0.38,0.72,2.12,-1.1,1.04,-5.1,-17.98,-10.14,4
3268410,-0.55,0.38,0.72,2.35,-1.23,0.01,-5.1,-17.98,-10.14,4
3268423,-0.55,0.38,0.72,2.3,-1.34,-0.45,-5.06,-18.01,-10.05,4
3268435,-0.55,0.38,0.72,2.15,-1.28,-0.4,-5.06,-18.01,-10.05,4
3268447,-0.55,0.38,0.72,2.09,-1.09,-0.16,-5.06,-18.01,-10.05,4
3268461,-0.55,0.37,0.73,2.09,-0.82,-0.47,-5.06,-18.01,-10.05,4
3268474,-0.55,0.37,0.73,1.91,-0.83,-0.94,-5.05,-18.05,-10.05,4
3268485,-0.55,0.37,0.73,1.34,-0.9,-1.75,-5.05,-18.05,-10.05,4
3268496,-0.55,0.38,0.72,1.17,-0.93,-1.77,-5.05,-18.05,-10.05,4
3268508,-0.55,0.38,0.72,1.16,-0.98,-1.42,-5.05,-18.05,-10.05,4
3268519,-0.55,0.38,0.72,1.72,-0.9,-1.0,-5.05,-18.05,-10.05,4
3268532,-0.55,0.38,0.72,2.09,-0.86,-1.18,-4.99,-18.16,-10.23,4
3268544,-0.55,0.38,0.72,2.28,-0.87,-1.34,-4.99,-18.16,-10.23,4
3268556,-0.55,0.38,0.73,2.03,-1.07,-1.29,-4.99,-18.16,-10.23,4
3268568,-0.55,0.38,0.73,1.95,-1.12,-1.13,-4.99,-18.16,-10.23,4
3268581,-0.55,0.38,0.72,1.78,-1.13,-0.74,-5.06,-18.25,-10.17,4
3268593,-0.55,0.38,0.72,1.82,-1.15,-0.98,-5.06,-18.25,-10.17,4
3268607,-0.55,0.37,0.72,1.77,-1.23,-1.49,-5.06,-18.25,-10.17,4
3268619,-0.54,0.38,0.73,1.69,-1.24,-1.43,-5.06,-18.25,-10.17,4
3268631,-0.55,0.38,0.73,1.49,-1.32,-0.53,-4.93,-18.2,-9.93,4
3268642,-0.55,0.38,0.72,1.54,-1.25,-0.33,-4.93,-18.2,-9.93,4
3268653,-0.55,0.38,0.72,1.57,-1.19,-0.38,-4.93,-18.2,-9.93,4
3268665,-0.55,0.37,0.72,1.34,-1.2,-0.7,-4.93,-18.2,-9.93,4
3268678,-0.55,0.38,0.72,1.07,-1.19,-0.65,-4.78,-18.22,-9.78,4
3268690,-0.55,0.38,0.72,0.89,-1.12,-0.44,-4.78,-18.22,-9.78,4
3268702,-0.55,0.39,0.72,1.13,-1.01,-0.46,-4.78,-18.22,-9.78,4
3268714,-0.55,0.39,0.72,1.46,-1.01,-0.82,-4.78,-18.22,-9.78,4
3268727,-0.55,0.38,0.72,2.12,-0.96,-1.73,-4.79,-18.22,-9.83,4
3268739,-0.55,0.38,0.72,2.25,-1.0,-1.99,-4.79,-18.22,-9.83,4
3268753,-0.54,0.38,0.72,2.15,-1.17,-1.92,-4.79,-18.22,-9.83,4
3268765,-0.54,0.38,0.72,2.2,-1.2,-1.59,-4.79,-18.22,-9.83,4
3268777,-0.54,0.38,0.72,2.59,-1.19,-0.71,-4.69,-18.2,-9.85,4
3268788,-0.54,0.38,0.73,2.77,-1.05,-0.21,-4.69,-18.2,-9.85,4
3268800,-0.54,0.38,0.73,2.85,-0.95,0.43,-4.69,-18.2,-9.85,4
3268814,-0.54,0.38,0.73,2.77,-0.87,1.59,-4.69,-18.2,-9.85,4
3268825,-0.54,0.38,0.73,2.87,-0.59,1.55,-4.63,-18.3,-9.72,4
3268839,-0.55,0.37,0.73,3.06,0.09,0.34,-4.63,-18.3,-9.72,4
3268851,-0.56,0.37,0.73,2.8,0.33,-0.32,-4.63,-18.3,-9.72,4
3268864,-0.56,0.38,0.73,2.56,2.33,-1.74,-4.63,-18.3,-9.72,4
3268875,-0.56,0.38,0.74,2.22,4.14,-2.17,-4.56,-18.3,-9.9,4
3268887,-0.56,0.38,0.74,1.51,5.92,-2.24,-4.56,-18.3,-9.9,4
3268899,-0.54,0.38,0.74,0.04,7.85,-1.75,-4.56,-18.3,-9.9,4
3268911,-0.53,0.37,0.73,-0.9,8.11,-1.4,-4.56,-18.3,-9.9,4
3268922,-0.52,0.37,0.73,-1.4,7.99,-1.3,-4.54,-18.21,-10.02,4
3268934,-0.51,0.37,0.74,-1.63,7.72,-1.37,-4.54,-18.21,-10.02,4
3268946,-0.51,0.38,0.74,-2.17,7.3,-1.3,-4.54,-18.21,-10.02,4
3268960,-0.52,0.37,0.74,-2.87,5.21,-0.68,-4.54,-18.21,-10.02,4
3268972,-0.52,0.37,0.74,-3.1,3.89,-0.63,-4.46,-18.2,-10.13,4
3268985,-0.53,0.37,0.73,-3.25,1.47,-1.34,-4.46,-18.2,-10.13,4
3268997,-0.54,0.38,0.73,-3.24,0.59,-1.87,-4.46,-18.2,-10.13,4
3269011,-0.55,0.39,0.72,-3.29,-0.58,-3.04,-4.46,-18.2,-10.13,4
3269022,-0.55,0.39,0.72,-3.14,-0.88,-3.67,-4.43,-18.22,-9.92,4
3269035,-0.54,0.4,0.72,-2.35,-1.22,-4.55,-4.43,-18.22,-9.92,4
3269047,-0.54,0.4,0.71,-1.63,-1.33,-4.94,-4.43,-18.22,-9.92,4
3269059,-0.53,0.4,0.72,-0.89,-1.47,-5.36,-4.43,-18.22,-9.92,4
3269072,-0.52,0.41,0.72,-0.15,-1.59,-5.66,-4.27,-18.2,-10.15,4
3269084,-0.52,0.41,0.72,-0.1,-1.58,-5.33,-4.27,-18.2,-10.15,4
3269097,-0.52,0.41,0.73,-0.01,-1.19,-3.79,-4.27,-18.2,-10.15,4
3269109,-0.52,0.4,0.73,0.02,-0.79,-2.58,-4.27,-18.2,-10.15,4
3269123,-0.52,0.39,0.73,0.38,-0.1,-0.35,-4.19,-18.37,-10.2,4
3269134,-0.52,0.39,0.73,0.54,0.04,0.07,-4.19,-18.37,-10.2,4
3269146,-0.52,0.39,0.73,0.39,-0.37,-0.23,-4.19,-18.37,-10.2,4
3269158,-0.52,0.39,0.73,0.2,-0.72,-0.49,-4.19,-18.37,-10.2,4
3269170,-0.52,0.4,0.73,0.05,-0.98,-0.67,-4.19,-18.37,-10.2,4
3269183,-0.53,0.4,0.73,0.3,-1.25,-1.07,-4.12,-18.33,-10.31,4
3269195,-0.53,0.4,0.73,0.57,-1.39,-1.43,-4.12,-18.33,-10.31,4
3269209,-0.52,0.4,0.72,0.94,-1.83,-2.19,-4.12,-18.33,-10.31,4
3269221,-0.53,0.4,0.72,1.09,-2.02,-2.42,-4.11,-18.44,-10.06,4
3269234,-0.53,0.4,0.73,1.41,-2.09,-2.6,-4.11,-18.44,-10.06,4
3269246,-0.53,0.41,0.73,1.3,-1.93,-2.62,-4.11,-18.44,-10.06,4
3269260,-0.52,0.41,0.73,1.02,-1.71,-2.41,-4.11,-18.44,-10.06,4
3269272,-0.52,0.41,0.72,0.7,-1.66,-2.27,-4.08,-18.46,-10.09,4
3269284,-0.52,0.41,0.72,0.55,-1.69,-1.98,-4.08,-18.46,-10.09,4
3269295,-0.52,0.41,0.72,0.76,-1.72,-1.68,-4.08,-18.46,-10.09,4
3269307,-0.52,0.4,0.72,0.8,-1.8,-1.2,-4.08,-18.46,-10.09,4
3269318,-0.52,0.4,0.72,0.93,-1.97,-0.43,-4.08,-18.46,-10.09,4
3269330,-0.53,0.4,0.73,1.06,-1.86,-0.48,-4.02,-18.54,-9.93,4
3269341,-0.53,0.4,0.73,1.12,-1.77,-0.75,-4.02,-18.54,-9.93,4
3269354,-0.53,0.4,0.73,0.92,-1.76,-1.47,-4.02,-18.54,-9.93,4
3269366,-0.53,0.4,0.73,0.77,-1.82,-1.71,-4.02,-18.54,-9.93,4
3269380,-0.52,0.41,0.72,0.54,-1.83,-1.64,-3.9,-18.53,-9.81,4
3269391,-0.52,0.41,0.72,0.52,-1.78,-1.44,-3.9,-18.53,-9.81,4
3269402,-0.52,0.41,0.72,0.58,-1.64,-1.43,-3.9,-18.53,-9.81,4
3269414,-0.52,0.41,0.72,0.36,-1.37,-1.76,-3.9,-18.53,-9.81,4
3269425,-0.52,0.41,0.73,0.22,-1.32,-1.93,-3.81,-18.73,-9.59,4
3269437,-0.52,0.41,0.72,0.06,-1.38,-2.02,-3.81,-18.73,-9.59,4
3269449,-0.52,0.41,0.72,0.08,-1.59,1.79,-3.81,-18.73,-9.59,4
3269461,-0.52,0.41,0.72,0.17,-1.78,1.53,-3.81,-18.73,-9.59,4
3269472,-0.52,0.41,0.72,0.3,-1.89,1.4,-3.72,-18.82,-9.33,4
3269483,-0.52,0.41,0.73,0.45,-1.93,1.2,-3.72,-18.82,-9.33,4
3269495,-0.52,0.41,0.73,0.48,-1.97,0.65,-3.72,-18.82,-9.33,4
3269509,-0.52,0.41,0.73,0.52,-2.1,0.13,-3.72,-18.82,-9.33,4
3269522,-0.52,0.41,0.73,0.49,-2.19,0.22,-3.62,-18.94,-9.11,4
3269533,-0.52,0.41,0.72,0.57,-1.78,0.29,-3.62,-18.94,-9.11,4
3269544,-0.53,0.42,0.72,0.59,-1.42,0.05,-3.62,-18.94,-9.11,4
3269556,-0.53,0.42,0.73,0.59,-1.06,-0.42,-3.62,-18.94,-9.11,4
3269567,-0.53,0.42,0.73,-0.04,-0.07,-1.41,-3.62,-18.94,-9.11,4
3269579,-0.52,0.41,0.73,-0.64,0.3,-1.64,-3.48,-18.92,-9.04,4
3269590,-0.52,0.41,0.73,-1.21,0.45,-1.68,-3.48,-18.92,-9.04,4
3269603,-0.51,0.42,0.72,-1.27,0.49,-1.22,-3.48,-18.92,-9.04,4
3269614,-0.51,0.42,0.72,-0.96,0.34,-0.84,-3.48,-18.92,-9.04,4
3269625,-0.51,0.42,0.72,-0.71,0.19,-0.35,-3.42,-18.93,-9.04,4
3269636,-0.51,0.42,0.72,-0.38,0.33,0.88,-3.42,-18.93,-9.04,4
3269647,-0.52,0.42,0.72,-0.31,0.8,1.32,-3.42,-18.93,-9.04,4
3269659,-0.52,0.42,0.72,-0.31,1.32,1.51,-3.42,-18.93,-9.04,4
3269671,-0.52,0.41,0.72,-0.61,1.67,1.22,-3.36,-19.06,-8.98,4
3269683,-0.52,0.41,0.72,-0.79,1.47,0.9,-3.36,-19.06,-8.98,4
3269695,-0.52,0.41,0.72,-0.84,1.07,0.58,-3.36,-19.06,-8.98,4
3269707,-0.52,0.42,0.72,-0.21,0.35,0.45,-3.36,-19.06,-8.98,4
3269718,-0.52,0.42,0.72,0.19,0.03,0.62,-3.36,-19.06,-8.98,4
3269730,-0.52,0.42,0.72,0.99,-0.44,0.28,-3.52,-19.08,-9.0,4
3269741,-0.53,0.42,0.72,1.25,-0.39,-0.34,-3.52,-19.08,-9.0,4
3269752,-0.53,0.42,0.72,1.29,-0.3,-1.02,-3.52,-19.08,-9.0,4
3269764,-0.53,0.42,0.72,0.86,-0.02,-2.04,-3.52,-19.08,-9.0,4
3269777,-0.52,0.42,0.73,0.36,0.1,-2.11,-3.58,-19.05,-9.03,4
3269788,-0.51,0.41,0.72,-0.07,0.26,-1.92,-3.58,-19.05,-9.03,4
3269801,-0.51,0.42,0.72,-0.65,0.54,-1.29,-3.58,-19.05,-9.03,4
3269813,-0.51,0.42,0.72,-0.79,0.55,-0.89,-3.58,-19.05,-9.03,4
3269825,-0.51,0.42,0.72,-0.96,0.49,-0.16,-3.59,-19.12,-8.75,4
3269836,-0.51,0.43,0.72,-1.05,0.45,0.17,-3.59,-19.12,-8.75,4
3269848,-0.51,0.43,0.72,-1.04,0.45,0.44,-3.59,-19.12,-8.75,4
3269859,-0.51,0.43,0.72,-0.56,0.2,0.77,-3.59,-19.12,-8.75,4
3269871,-0.51,0.43,0.72,-0.11,0.16,0.69,-3.53,-19.08,-8.71,4
3269883,-0.51,0.42,0.72,0.29,0.07,0.6,-3.53,-19.08,-8.71,4
3269895,-0.51,0.42,0.72,0.76,-0.2,0.74,-3.53,-19.08,-8.71,4
3269906,-0.51,0.43,0.72,0.99,-0.33,0.9,-3.53,-19.08,-8.71,4
3269917,-0.51,0.43,0.72,1.19,-0.41,1.09,-3.53,-19.08,-8.71,4
3269930,-0.51,0.42,0.72,1.26,-0.67,1.54,-3.53,-19.01,-8.74,4
3269942,-0.52,0.42,0.72,1.29,-0.78,1.47,-3.53,-19.01,-8.74,4
3269952,-0.52,0.42,0.72,1.25,-0.82,1.04,-3.53,-19.01,-8.74,4
3269964,-0.52,0.42,0.72,1.29,-0.77,-0.15,-3.53,-19.01,-8.74,4
3269975,-0.51,0.42,0.72,1.31,-0.83,-0.55,-3.53,-18.86,-8.85,4
3269988,-0.51,0.42,0.72,1.13,-0.91,-0.72,-3.53,-18.86,-8.85,4
3269999,-0.51,0.42,0.72,1.07,-0.97,-0.51,-3.53,-18.86,-8.85,4
3270011,-0.51,0.42,0.72,1.05,-1.02,-0.19,-3.53,-18.86,-8.85,4
3270024,-0.51,0.42,0.72,1.08,-1.2,0.36,-3.5,-18.84,-8.87,4
3270036,-0.51,0.42,0.72,1.15,-1.37,0.4,-3.5,-18.84,-8.87,4
3270050,-0.51,0.42,0.72,1.18,-1.73,0.24,-3.5,-18.84,-8.87,4
3270062,-0.51,0.42,0.72,1.2,-1.93,0.16,-3.5,-18.84,-8.87,4
3270074,-0.52,0.43,0.72,1.47,-2.2,-0.11,-3.53,-19.01,-8.96,4
3270085,-0.52,0.43,0.72,1.72,-2.29,-0.3,-3.53,-19.01,-8.96,4
3270097,-0.52,0.43,0.72,2.0,-2.42,-0.57,-3.53,-19.01,-8.96,4
3270108,-0.51,0.43,0.72,2.56,-2.89,-0.88,-3.53,-19.01,-8.96,4
3270120,-0.51,0.42,0.72,2.75,-3.21,-0.91,-3.5,-19.04,-8.89,4
3270132,-0.51,0.43,0.72,2.96,-3.56,-0.98,-3.5,-19.04,-8.89,4
3270144,-0.51,0.42,0.72,3.44,-4.24,-1.32,-3.5,-19.04,-8.89,4
3270156,-0.52,0.42,0.72,3.67,-4.44,-1.34,-3.5,-19.04,-8.89,4
3270171,-0.52,0.43,0.72,3.39,-4.63,-0.82,-3.43,-19.15,-8.62,4
3270183,-0.52,0.43,0.72,3.24,-4.52,-0.5,-3.43,-19.15,-8.62,4
3270194,-0.52,0.43,0.72,3.04,-4.11,-0.05,-3.43,-19.15,-8.62,4
3270205,-0.52,0.42,0.72,2.94,-4.02,0.09,-3.43,-19.15,-8.62,4
3270217,-0.52,0.42,0.72,2.71,-3.9,0.23,-3.43,-19.15,-8.62,4
3270230,-0.52,0.42,0.72,2.25,-3.54,0.47,-3.39,-19.16,-8.64,4
3270242,-0.52,0.42,0.72,2.09,-3.35,0.56,-3.39,-19.16,-8.64,4
3270256,-0.52,0.42,0.72,1.51,-2.94,1.02,-3.39,-19.16,-8.64,4
3270268,-0.52,0.42,0.72,1.22,-2.74,0.8,-3.39,-19.16,-8.64,4
3270280,-0.53,0.42,0.72,1.01,-2.65,-1.21,-3.37,-19.12,-8.79,4
3270291,-0.52,0.42,0.72,0.75,-2.71,-2.52,-3.37,-19.12,-8.79,4
3270303,-0.52,0.42,0.72,0.45,-2.84,-3.36,-3.37,-19.12,-8.79,4
3270314,-0.52,0.42,0.72,-0.02,-2.89,-3.41,-3.37,-19.12,-8.79,4
3270327,-0.52,0.42,0.71,-0.15,-2.75,-3.33,-3.42,-19.17,-8.83,4
3270339,-0.53,0.42,0.71,-0.21,-2.54,-3.53,-3.42,-19.17,-8.83,4
3270350,-0.53,0.43,0.71,-0.3,-2.39,-4.1,-3.42,-19.17,-8.83,4
3270362,-0.52,0.43,0.71,-0.37,-2.36,-5.55,-3.42,-19.17,-8.83,4
3270374,-0.52,0.43,0.71,-0.73,-2.7,-8.06,-3.28,-19.26,-8.65,4
3270385,-0.52,0.44,0.71,-0.92,-3.13,-9.19,-3.28,-19.26,-8.65,4
3270397,-0.52,0.44,0.71,-1.04,-3.71,-10.45,-3.28,-19.26,-8.65,4
3270409,-0.52,0.44,0.71,-1.52,-4.02,-11.38,-3.28,-19.26,-8.65,4
3270420,-0.52,0.44,0.71,-2.1,-3.86,-10.81,-3.32,-19.28,-8.75,4
3270432,-0.52,0.44,0.71,-2.59,-3.63,-9.96,-3.32,-19.28,-8.75,4
3270444,-0.52,0.44,0.71,-2.86,-3.12,-9.32,-3.32,-19.28,-8.75,4
3270456,-0.51,0.44,0.71,-2.61,-3.13,-9.46,-3.32,-19.28,-8.75,4
3270467,-0.51,0.44,0.7,-2.3,-3.36,-9.58,-3.32,-19.28,-8.75,4
3270480,-0.5,0.46,0.7,-1.35,-4.63,-10.04,-3.13,-19.38,-8.73,4
3270492,-0.5,0.46,0.7,-0.78,-5.46,-10.33,-3.13,-19.38,-8.73,4
3270503,-0.5,0.46,0.7,-0.22,-7.08,-10.1,-3.13,-19.38,-8.73,4
3270515,-0.5,0.46,0.7,-0.32,-7.76,-9.39,-3.13,-19.38,-8.73,4
3270526,-0.5,0.46,0.7,-0.49,-8.19,-8.29,-2.98,-19.59,-8.48,4
3270537,-0.5,0.46,0.7,-0.71,-8.26,-5.66,-2.98,-19.59,-8.48,4
3270549,-0.51,0.45,0.7,-0.78,-8.09,-4.46,-2.98,-19.59,-8.48,4
3270561,-0.52,0.45,0.7,-0.7,-7.89,-3.94,-2.98,-19.59,-8.48,4
3270574,-0.53,0.45,0.7,-0.97,-7.6,-4.95,-2.85,-19.77,-8.5,4
3270586,-0.54,0.45,0.7,-1.38,-7.31,-5.89,-2.85,-19.77,-8.5,4
3270598,-0.54,0.45,0.7,-2.18,-5.98,-6.4,-2.85,-19.77,-8.5,4
3270609,-0.53,0.46,0.7,-2.4,-5.12,-5.88,-2.85,-19.77,-8.5,4
3270620,-0.52,0.46,0.69,-2.4,-4.23,-5.16,-2.69,-19.9,-8.17,4
3270631,-0.51,0.46,0.69,-2.16,-3.54,-4.44,-2.69,-19.9,-8.17,4
3270642,-0.51,0.46,0.69,-1.85,-3.02,-3.73,-2.69,-19.9,-8.17,4
3270654,-0.51,0.47,0.69,-1.6,-2.58,-2.75,-2.69,-19.9,-8.17,4
3270668,-0.51,0.47,0.69,-0.88,-2.28,-1.5,-2.69,-19.9,-8.17,4
3270679,-0.51,0.47,0.69,-0.58,-2.41,-1.36,-2.54,-20.02,-8.05,4
3270692,-0.52,0.47,0.69,0.08,-2.85,-2.36,-2.54,-20.02,-8.05,4
3270703,-0.52,0.47,0.69,0.43,-3.1,-3.44,-2.54,-20.02,-8.05,4
3270715,-0.52,0.47,0.69,0.61,-3.3,-4.35,-2.54,-20.02,-8.05,4
3270728,-0.52,0.47,0.69,0.4,-3.26,-4.46,-2.36,-20.2,-7.91,4
3270739,-0.51,0.47,0.69,0.19,-3.01,-3.94,-2.36,-20.2,-7.91,4
3270751,-0.51,0.47,0.69,0.07,-2.79,-3.31,-2.36,-20.2,-7.91,4
3270763,-0.51,0.47,0.69,-0.21,-2.75,-2.72,-2.36,-20.2,-7.91,4
3270774,-0.51,0.47,0.69,-0.52,-3.22,-3.24,-2.23,-20.29,-7.78,4
3270788,-0.51,0.48,0.69,-2.1,-4.73,-4.76,-2.23,-20.29,-7.78,4
3270800,-0.51,0.48,0.69,-3.22,-5.53,-5.08,-2.23,-20.29,-7.78,4
3270814,-0.51,0.48,0.68,-5.11,-6.89,-4.48,-2.23,-20.29,-7.78,4
3270825,-0.51,0.48,0.68,-5.73,-7.46,-3.61,-2.06,-20.41,-7.68,4
3270836,-0.51,0.48,0.68,-6.04,-7.91,-2.48,-2.06,-20.41,-7.68,4
3270848,-0.52,0.48,0.67,-5.86,-8.46,-1.05,-2.06,-20.41,-7.68,4
3270860,-0.52,0.48,0.67,-5.79,-8.79,-0.95,-2.06,-20.41,-7.68,4
3270872,-0.52,0.48,0.67,-5.71,-9.06,-1.45,-2.0,-20.62,-7.51,4
3270884,-0.53,0.49,0.67,-5.41,-8.72,-1.73,-2.0,-20.62,-7.51,4
3270896,-0.53,0.49,0.66,-4.77,-7.9,-1.92,-2.0,-20.62,-7.51,4
3270908,-0.53,0.5,0.66,-3.0,-5.93,-1.87,-2.0,-20.62,-7.51,4
3270919,-0.52,0.5,0.66,-2.08,-5.2,-1.82,-2.04,-20.83,-7.12,4
3270933,-0.52,0.5,0.66,-0.5,-4.39,-1.9,-2.04,-20.83,-7.12,4
3270944,-0.52,0.5,0.66,0.07,-4.19,-1.75,-2.04,-20.83,-7.12,4
3270956,-0.52,0.5,0.66,0.56,-4.02,-1.21,-2.04,-20.83,-7.12,4
3270967,-0.52,0.5,0.66,1.17,-3.67,0.66,-2.04,-20.83,-7.12,4
3270979,-0.53,0.49,0.67,1.42,-3.44,1.21,-1.95,-20.79,-6.75,4
3270991,-0.53,0.49,0.67,1.59,-3.33,1.23,-1.95,-20.79,-6.75,4
3271003,-0.53,0.49,0.67,1.37,-3.4,0.22,-1.95,-20.79,-6.75,4
3271015,-0.53,0.49,0.67,1.29,-3.56,-0.33,-1.95,-20.79,-6.75,4
3271027,-0.53,0.49,0.67,1.12,-4.12,-1.17,-1.84,-20.82,-6.87,4
3271038,-0.53,0.49,0.66,0.95,-4.39,-1.49,-1.84,-20.82,-6.87,4
3271050,-0.53,0.49,0.66,0.81,-4.45,-1.64,-1.84,-20.82,-6.87,4
3271061,-0.53,0.49,0.66,0.64,-4.22,-1.42,-1.84,-20.82,-6.87,4
3271073,-0.53,0.49,0.66,0.62,-4.03,-1.54,-1.85,-20.98,-6.58,4
3271084,-0.53,0.5,0.66,0.6,-3.87,-1.64,-1.85,-20.98,-6.58,4
3271097,-0.53,0.5,0.66,0.57,-3.65,-1.42,-1.85,-20.98,-6.58,4
3271109,-0.52,0.5,0.66,0.7,-3.61,-1.15,-1.85,-20.98,-6.58,4
3271122,-0.52,0.5,0.66,0.88,-3.73,0.15,-1.78,-21.03,-6.41,4
3271134,-0.52,0.5,0.65,0.99,-3.71,1.1,-1.78,-21.03,-6.41,4
3271145,-0.53,0.5,0.66,1.16,-3.64,1.83,-1.78,-21.03,-6.41,4
3271158,-0.54,0.49,0.66,1.64,-3.66,1.93,-1.78,-21.03,-6.41,4
3271169,-0.54,0.49,0.66,1.68,-3.83,1.24,-1.76,-21.11,-6.36,4
3271182,-0.54,0.49,0.66,1.39,-4.48,-0.34,-1.76,-21.11,-6.36,4
3271193,-0.53,0.49,0.66,1.2,-4.73,-0.8,-1.76,-21.11,-6.36,4
3271205,-0.53,0.49,0.66,1.0,-4.87,-0.83,-1.76,-21.11,-6.36,4
3271216,-0.53,0.5,0.66,0.58,-4.77,0.19,-1.76,-21.11,-6.36,4
3271228,-0.53,0.5,0.65,0.49,-4.47,0.91,-1.72,-21.24,-6.26,4
3271240,-0.54,0.5,0.65,0.5,-4.17,1.59,-1.72,-21.24,-6.26,4
3271252,-0.54,0.5,0.65,0.88,-3.71,1.91,-1.72,-21.24,-6.26,4
3271264,-0.54,0.5,0.65,1.11,-3.62,1.49,-1.72,-21.24,-6.26,4
3271276,-0.54,0.5,0.65,1.32,-3.59,0.47,-1.72,-21.2,-6.1,4
3271287,-0.54,0.5,0.65,1.31,-3.58,0.23,-1.72,-21.2,-6.1,4
3271299,-0.54,0.5,0.65,1.32,-3.56,0.32,-1.72,-21.2,-6.1,4
3271312,-0.54,0.5,0.65,1.26,-3.44,1.07,-1.72,-21.2,-6.1,4
3271324,-0.54,0.5,0.65,1.22,-3.4,1.5,-1.71,-21.16,-5.98,4
3271336,-0.54,0.5,0.65,0.98,-3.3,1.91,-1.71,-21.16,-5.98,4
3271347,-0.55,0.49,0.65,0.81,-3.22,1.88,-1.71,-21.16,-5.98,4
3271359,-0.55,0.49,0.65,0.6,-3.15,1.82,-1.71,-21.16,-5.98,4
3271372,-0.54,0.5,0.65,0.38,-3.02,1.64,-1.77,-21.24,-5.89,4
3271384,-0.54,0.5,0.65,0.43,-2.92,1.51,-1.77,-21.24,-5.89,4
3271395,-0.54,0.5,0.65,0.52,-2.74,1.24,-1.77,-21.24,-5.89,4
3271407,-0.54,0.5,0.65,0.77,-2.61,0.33,-1.77,-21.24,-5.89,4
3271418,-0.55,0.5,0.65,0.84,-2.58,-0.14,-1.82,-21.28,-5.74,4
3271432,-0.55,0.5,0.65,0.98,-2.25,-0.26,-1.82,-21.28,-5.74,4
3271444,-0.55,0.5,0.65,1.02,-1.97,-0.15,-1.82,-21.28,-5.74,4
3271458,-0.55,0.49,0.65,1.22,-1.63,-0.33,-1.82,-21.28,-5.74,4
3271469,-0.54,0.49,0.65,1.22,-1.56,-0.53,-1.84,-21.27,-5.68,4
3271482,-0.54,0.49,0.65,0.99,-1.64,-0.78,-1.84,-21.27,-5.68,4
3271493,-0.55,0.5,0.65,0.86,-1.73,-0.64,-1.84,-21.27,-5.68,4
3271504,-0.55,0.5,0.64,0.75,-1.84,-0.33,-1.84,-21.27,-5.68,4
3271516,-0.55,0.51,0.64,0.89,-2.2,0.09,-1.84,-21.27,-5.68,4
3271529,-0.54,0.5,0.64,0.9,-2.48,0.16,-1.86,-21.16,-5.81,4
3271540,-0.54,0.49,0.64,0.74,-2.7,0.07,-1.86,-21.16,-5.81,4
3271553,-0.55,0.49,0.65,-0.02,-3.36,-0.44,-1.86,-21.16,-5.81,4
3271565,-0.55,0.49,0.65,-0.62,-3.68,-0.76,-1.86,-21.16,-5.81,4
3271578,-0.55,0.49,0.65,-1.82,-4.09,-1.17,-1.93,-21.14,-5.73,4
3271590,-0.55,0.5,0.65,-2.55,-4.25,-1.06,-1.93,-21.14,-5.73,4
3271604,-0.55,0.5,0.64,-4.34,-4.87,-0.57,-1.93,-21.14,-5.73,4
3271616,-0.55,0.5,0.64,-5.03,-5.27,-0.58,-1.93,-21.14,-5.73,4
3271629,-0.55,0.5,0.63,-5.73,-5.63,-0.64,-1.99,-21.12,-5.48,4
3271641,-0.55,0.51,0.63,-5.85,-5.68,-0.73,-1.99,-21.12,-5.48,4
3271655,-0.55,0.51,0.63,-5.56,-5.61,-0.83,-1.99,-21.12,-5.48,4
3271668,-0.55,0.51,0.63,-5.16,-5.48,-0.65,-2.05,-21.13,-5.32,4
3271680,-0.55,0.51,0.63,-4.16,-4.88,-0.19,-2.05,-21.13,-5.32,4
3271692,-0.55,0.51,0.63,-3.59,-4.52,0.06,-2.05,-21.13,-5.32,4
3271704,-0.56,0.51,0.63,-2.99,-4.25,0.27,-2.05,-21.13,-5.32,4
3271716,-0.56,0.51,0.62,-1.71,-3.73,0.18,-2.05,-21.13,-5.32,4
3271727,-0.56,0.51,0.63,-1.18,-3.43,0.17,-2.16,-21.1,-5.21,4
3271741,-0.56,0.51,0.63,-0.37,-2.76,0.12,-2.16,-21.1,-5.21,4
3271752,-0.56,0.51,0.62,-0.09,-2.6,-0.03,-2.16,-21.1,-5.21,4
3271764,-0.56,0.51,0.62,0.11,-2.54,-0.28,-2.16,-21.1,-5.21,4
3271777,-0.55,0.51,0.62,0.27,-2.39,-0.31,-2.2,-21.19,-5.04,4
3271789,-0.55,0.51,0.62,0.37,-2.24,-0.03,-2.2,-21.19,-5.04,4
3271800,-0.56,0.51,0.62,0.75,-1.95,0.71,-2.2,-21.19,-5.04,4
3271811,-0.56,0.52,0.62,0.88,-1.8,1.02,-2.2,-21.19,-5.04,4
3271822,-0.56,0.52,0.62,1.1,-1.62,1.22,-2.13,-21.22,-4.97,4
3271833,-0.55,0.52,0.62,1.41,-1.53,1.26,-2.13,-21.22,-4.97,4
3271845,-0.55,0.51,0.62,1.89,-1.63,1.05,-2.13,-21.22,-4.97,4
3271857,-0.55,0.51,0.62,2.09,-1.74,0.97,-2.13,-21.22,-4.97,4
3271868,-0.56,0.51,0.62,2.24,-1.8,0.95,-2.32,-21.25,-4.78,4
3271879,-0.56,0.51,0.62,2.24,-1.77,0.96,-2.32,-21.25,-4.78,4
3271891,-0.56,0.51,0.62,2.19,-1.73,0.68,-2.32,-21.25,-4.78,4
3271905,-0.56,0.51,0.62,2.1,-1.78,-0.06,-2.32,-21.25,-4.78,4
3271915,-0.56,0.51,0.62,1.92,-1.77,-0.37,-2.32,-21.25,-4.78,4
3271926,-0.56,0.51,0.62,1.7,-1.75,-0.61,-2.29,-21.21,-4.55,4
3271937,-0.56,0.51,0.62,1.21,-1.61,-0.71,-2.29,-21.21,-4.55,4
3271948,-0.56,0.51,0.62,0.93,-1.52,-0.65,-2.29,-21.21,-4.55,4
3271959,-0.56,0.52,0.62,0.91,-1.48,-0.71,-2.29,-21.21,-4.55,4
3271970,-0.56,0.52,0.62,1.03,-1.51,-0.75,-2.24,-21.25,-4.55,4
3271982,-0.56,0.51,0.62,1.1,-1.7,-0.76,-2.24,-21.25,-4.55,4
3271994,-0.56,0.51,0.62,1.06,-1.81,-0.86,-2.24,-21.25,-4.55,4
3272008,-0.55,0.51,0.62,0.92,-2.1,-0.97,-2.24,-21.25,-4.55,4
3272019,-0.56,0.51,0.62,0.71,-2.27,-0.96,-2.27,-21.25,-4.8,4
3272032,-0.56,0.51,0.62,0.45,-2.51,-0.66,-2.27,-21.25,-4.8,4
3272043,-0.56,0.51,0.62,0.38,-2.51,-0.45,-2.27,-21.25,-4.8,4
3272055,-0.56,0.51,0.62,0.15,-2.56,-0.4,-2.27,-21.25,-4.8,4
3272067,-0.56,0.51,0.62,-0.24,-2.72,-0.86,-2.23,-21.34,-4.49,4
3272079,-0.56,0.51,0.62,-0.6,-2.93,-1.02,-2.23,-21.34,-4.49,4
3272092,-0.56,0.51,0.62,-2.72,-4.17,-0.61,-2.23,-21.34,-4.49,4
3272104,-0.56,0.52,0.62,-4.84,-5.39,-0.03,-2.23,-21.34,-4.49,4
3272117,-0.56,0.52,0.62,-7.42,-6.68,0.69,-2.3,-21.36,-4.3,4
3272128,-0.56,0.52,0.61,-9.62,-7.71,1.32,-2.3,-21.36,-4.3,4
3272140,-0.56,0.52,0.61,-10.74,-8.11,1.63,-2.3,-21.36,-4.3,4
3272154,-0.57,0.53,0.6,-10.71,-8.04,1.47,-2.3,-21.36,-4.3,4
3272166,-0.56,0.53,0.6,-9.88,-7.61,1.05,-2.3,-21.36,-4.3,4
3272178,-0.56,0.53,0.6,-7.23,-6.34,0.18,-2.46,-21.51,-4.16,4
3272189,-0.56,0.53,0.59,-5.84,-5.64,-0.07,-2.46,-21.51,-4.16,4
3272201,-0.56,0.53,0.59,-4.55,-4.99,-0.07,-2.46,-21.51,-4.16,4
3272212,-0.57,0.53,0.59,-2.51,-3.77,0.24,-2.46,-21.51,-4.16,4
3272224,-0.57,0.53,0.59,-1.64,-3.36,0.21,-2.46,-21.51,-3.6,4
3272236,-0.57,0.53,0.59,-0.89,-3.01,0.0,-2.46,-21.51,-3.6,4
3272249,-0.57,0.53,0.59,-0.08,-2.53,-0.44,-2.46,-21.51,-3.6,4
3272261,-0.57,0.53,0.59,0.14,-2.42,-0.45,-2.46,-21.51,-3.6,4
3272274,-0.57,0.53,0.59,0.76,-2.14,0.09,-2.5,-21.62,-3.38,4
3272286,-0.57,0.53,0.59,0.99,-2.02,0.42,-2.5,-21.62,-3.38,4
3272299,-0.57,0.53,0.59,1.54,-1.86,0.83,-2.5,-21.62,-3.38,4
3272310,-0.58,0.53,0.59,1.59,-1.73,0.83,-2.5,-21.62,-3.38,4
3272321,-0.58,0.53,0.59,1.54,-1.69,0.69,-2.44,-21.68,-3.42,4
3272332,-0.58,0.53,0.59,1.36,-1.57,0.16,-2.44,-21.68,-3.42,4
3272343,-0.57,0.53,0.59,1.33,-1.47,-0.08,-2.44,-21.68,-3.42,4
3272354,-0.57,0.53,0.59,1.41,-1.43,-0.28,-2.44,-21.68,-3.42,4
3272367,-0.57,0.53,0.59,1.68,-1.43,-0.61,-2.6,-21.72,-3.29,4
3272378,-0.57,0.53,0.59,1.7,-1.38,-0.57,-2.6,-21.72,-3.29,4
3272390,-0.57,0.53,0.59,1.66,-1.25,-0.52,-2.6,-21.72,-3.29,4
3272400,-0.57,0.53,0.59,1.7,-1.18,-0.49,-2.6,-21.72,-3.29,4
3272411,-0.57,0.53,0.59,1.67,-1.16,-0.38,-2.6,-21.72,-3.29,4
3272422,-0.57,0.53,0.59,1.57,-1.13,-0.38,-2.45,-21.67,-3.06,4
3272434,-0.57,0.53,0.59,1.63,-1.22,-0.39,-2.45,-21.67,-3.06,4
3272445,-0.57,0.53,0.59,1.73,-1.21,-0.38,-2.45,-21.67,-3.06,4
3272456,-0.57,0.53,0.59,1.74,-1.24,-0.22,-2.45,-21.67,-3.06,4
3272467,-0.58,0.53,0.59,1.84,-1.21,-0.24,-2.42,-21.65,-3.02,4
3272478,-0.58,0.53,0.59,1.86,-1.01,-0.82,-2.42,-21.65,-3.02,4
3272490,-0.57,0.53,0.59,1.61,-1.03,-1.09,-2.42,-21.65,-3.02,4
3272500,-0.57,0.53,0.59,1.47,-1.15,-1.24,-2.42,-21.65,-3.02,4
3272513,-0.57,0.54,0.59,1.31,-1.3,-0.87,-2.42,-21.65,-3.02,4
3272525,-0.57,0.54,0.59,1.39,-1.28,-0.42,-2.42,-21.69,-3.0,4
3272537,-0.57,0.53,0.59,1.55,-1.23,-0.11,-2.42,-21.69,-3.0,4
3272549,-0.57,0.53,0.59,1.61,-1.19,-0.0,-2.42,-21.69,-3.0,4
3272561,-0.57,0.53,0.59,1.52,-1.24,-0.12,-2.42,-21.69,-3.0,4
3272573,-0.57,0.53,0.59,1.51,-1.26,-0.34,-2.44,-21.55,-2.87,4
3272585,-0.57,0.54,0.59,1.51,-1.25,-0.5,-2.44,-21.55,-2.87,4
3272597,-0.57,0.54,0.59,1.49,-1.29,-0.62,-2.44,-21.55,-2.87,4
3272609,-0.57,0.53,0.59,1.58,-1.29,-0.58,-2.44,-21.55,-2.87,4
3272620,-0.57,0.53,0.59,1.5,-1.26,-0.37,-2.46,-21.57,-3.08,4
3272631,-0.57,0.53,0.59,1.45,-1.27,-0.22,-2.46,-21.57,-3.08,4
3272643,-0.57,0.54,0.59,1.49,-1.39,-0.28,-2.46,-21.57,-3.08,4
3272655,-0.57,0.54,0.59,1.45,-1.42,-0.4,-2.46,-21.57,-3.08,4
3272666,-0.57,0.53,0.59,1.45,-1.4,-0.52,-2.38,-21.7,-2.97,4
3272677,-0.57,0.53,0.59,1.48,-1.35,-0.48,-2.38,-21.7,-2.97,4
3272689,-0.57,0.54,0.59,1.42,-1.23,-0.22,-2.38,-21.7,-2.97,4
3272700,-0.57,0.54,0.59,1.39,-1.13,0.1,-2.38,-21.7,-2.97,4
3272712,-0.57,0.54,0.59,1.59,-0.96,0.54,-2.38,-21.7,-2.97,4
3272723,-0.57,0.53,0.59,1.64,-0.96,0.57,-2.37,-21.65,-3.02,4
3272735,-0.57,0.53,0.59,1.64,-1.09,0.39,-2.37,-21.65,-3.02,4
3272747,-0.57,0.53,0.59,1.52,-1.24,3.49,-2.37,-21.65,-3.02,4
3272759,-0.57,0.53,0.59,1.44,-1.29,2.76,-2.37,-21.65,-3.02,4
3272772,-0.57,0.54,0.59,1.62,-1.23,1.83,-2.32,-21.71,-3.4,4
3272784,-0.57,0.54,0.59,1.66,-1.16,1.59,-2.32,-21.71,-3.4,4
3272798,-0.57,0.53,0.59,1.54,-0.96,1.11,-2.32,-21.71,-3.4,4
3272810,-0.57,0.53,0.59,1.49,-0.91,0.92,-2.32,-21.71,-3.4,4
3272822,-0.57,0.54,0.59,1.33,-0.91,0.66,-2.33,-21.75,-3.43,4
3272833,-0.57,0.54,0.59,1.4,-0.94,0.59,-2.33,-21.75,-3.43,4
3272845,-0.57,0.54,0.59,1.47,-0.99,0.56,-2.33,-21.75,-3.43,4
3272856,-0.57,0.54,0.59,1.59,-1.16,0.61,-2.33,-21.75,-3.43,4
3272868,-0.57,0.53,0.59,1.65,-1.15,0.63,-2.37,-21.76,-3.43,4
3272880,-0.57,0.53,0.59,1.73,-1.08,0.62,-2.37,-21.76,-3.43,4
3272892,-0.57,0.54,0.59,1.78,-0.89,0.52,-2.37,-21.76,-3.43,4
3272904,-0.57,0.54,0.59,1.82,-0.79,0.49,-2.37,-21.76,-3.43,4
3272919,-0.57,0.53,0.59,2.05,-0.51,0.31,-2.39,-21.66,-3.42,4
3272931,-0.57,0.53,0.59,1.98,-0.45,0.19,-2.39,-21.66,-3.42,4
3272941,-0.57,0.53,0.59,1.88,-0.48,0.1,-2.39,-21.66,-3.42,4
3272953,-0.57,0.53,0.59,1.56,-0.69,0.32,-2.39,-21.66,-3.42,4
3272965,-0.57,0.53,0.59,1.41,-0.94,0.56,-2.45,-21.74,-3.65,4
3272978,-0.57,0.53,0.59,1.25,-1.3,1.12,-2.45,-21.74,-3.65,4
3272988,-0.58,0.53,0.59,1.34,-1.25,1.14,-2.45,-21.74,-3.65,4
3272999,-0.58,0.53,0.59,1.41,-1.27,1.08,-2.45,-21.74,-3.65,4
3273011,-0.58,0.53,0.59,1.29,-1.55,0.7,-2.45,-21.74,-3.65,4
3273023,-0.58,0.53,0.59,1.23,-1.58,0.52,-2.36,-21.86,-3.5,4
3273033,-0.57,0.53,0.59,1.27,-1.6,0.37,-2.36,-21.86,-3.5,4
3273043,-0.57,0.53,0.59,1.33,-1.53,0.23,-2.36,-21.86,-3.5,4
3273055,-0.57,0.53,0.59,1.15,-1.49,0.09,-2.36,-21.86,-3.5,4
3273066,-0.57,0.53,0.59,1.11,-1.56,-0.11,-2.33,-21.86,-3.32,4
3273078,-0.57,0.53,0.59,1.14,-1.62,-0.38,-2.33,-21.86,-3.32,4
3273089,-0.58,0.53,0.59,1.1,-1.64,-0.62,-2.33,-21.86,-3.32,4
3273100,-0.57,0.53,0.59,0.98,-1.61,-0.83,-2.33,-21.86,-3.32,4
3273111,-0.57,0.53,0.59,0.94,-1.57,-0.73,-2.33,-21.86,-3.32,4
3273125,-0.57,0.54,0.59,0.79,-1.42,0.16,-2.42,-21.81,-3.17,4
3273135,-0.57,0.54,0.59,0.82,-1.33,0.66,-2.42,-21.81,-3.17,4
3273145,-0.57,0.54,0.58,0.96,-1.2,0.99,-2.42,-21.81,-3.17,4
3273158,-0.57,0.54,0.58,1.17,-1.11,1.21,-2.42,-21.81,-3.17,4
3273169,-0.57,0.54,0.58,1.23,-1.06,1.12,-2.46,-21.86,-3.09,4
3273180,-0.57,0.54,0.58,1.41,-1.04,0.96,-2.46,-21.86,-3.09,4
3273190,-0.57,0.54,0.58,1.58,-1.08,0.73,-2.46,-21.86,-3.09,4
3273202,-0.57,0.53,0.59,1.83,-1.33,0.48,-2.46,-21.86,-3.09,4
3273214,-0.57,0.53,0.59,1.91,-1.42,0.38,-2.46,-21.86,-3.09,4
3273226,-0.57,0.53,0.59,1.85,-1.61,0.15,-2.55,-21.71,-3.02,4
3273237,-0.58,0.53,0.59,1.75,-1.64,-0.1,-2.55,-21.71,-3.02,4
3273248,-0.58,0.53,0.59,1.67,-1.58,-0.25,-2.55,-21.71,-3.02,4
3273260,-0.57,0.53,0.59,1.54,-1.45,-0.35,-2.55,-21.71,-3.02,4
3273272,-0.57,0.53,0.59,1.49,-1.37,-0.29,-2.46,-21.84,-2.88,4
3273284,-0.57,0.53,0.59,1.4,-1.27,-0.15,-2.46,-21.84,-2.88,4
3273296,-0.57,0.54,0.59,1.4,-1.13,-0.03,-2.46,-21.84,-2.88,4
3273308,-0.57,0.54,0.59,1.47,-1.13,0.09,-2.46,-21.84,-2.88,4
3273321,-0.57,0.54,0.59,1.78,-1.17,0.42,-2.54,-21.76,-2.83,4
3273333,-0.57,0.54,0.59,1.96,-1.14,0.42,-2.54,-21.76,-2.83,4
3273346,-0.57,0.53,0.59,2.15,-1.09,0.09,-2.54,-21.76,-2.83,4
3273357,-0.57,0.53,0.59,2.07,-1.13,-0.1,-2.54,-21.76,-2.83,4
3273368,-0.57,0.53,0.59,1.96,-1.13,-0.23,-2.5,-21.77,-2.72,4
3273381,-0.57,0.53,0.59,1.82,-0.94,0.12,-2.5,-21.77,-2.72,4
3273392,-0.57,0.53,0.59,1.62,-0.91,0.41,-2.5,-21.77,-2.72,4
3273403,-0.57,0.53,0.59,1.56,-0.91,0.48,-2.5,-21.77,-2.72,4
3273416,-0.58,0.53,0.59,1.5,-1.02,0.02,-2.6,-21.89,-2.9,4
3273427,-0.58,0.53,0.59,1.35,-1.14,-0.24,-2.6,-21.89,-2.9,4
3273438,-0.58,0.54,0.59,1.32,-1.2,-0.53,-2.6,-21.89,-2.9,4
3273451,-0.57,0.54,0.59,1.48,-1.18,-0.7,-2.6,-21.89,-2.9,4
3273463,-0.57,0.54,0.59,1.46,-1.15,-0.46,-2.6,-21.89,-2.9,4
3273476,-0.57,0.53,0.59,1.62,-1.17,-0.13,-2.55,-21.94,-2.97,4
3273488,-0.57,0.53,0.59,1.68,-1.15,-0.05,-2.55,-21.94,-2.97,4
3273502,-0.57,0.54,0.59,1.62,-1.25,0.21,-2.55,-21.94,-2.97,4
3273514,-0.57,0.54,0.59,1.65,-1.25,0.36,-2.55,-21.94,-2.97,4
3273525,-0.58,0.53,0.59,1.69,-1.19,0.45,-2.51,-21.96,-3.17,4
3273537,-0.58,0.53,0.59,1.71,-1.29,-0.07,-2.51,-21.96,-3.17,4
3273549,-0.58,0.53,0.59,1.7,-1.4,-0.46,-2.51,-21.96,-3.17,4
3273563,-0.57,0.53,0.59,1.55,-1.49,-0.76,-2.51,-21.96,-3.17,4
3273574,-0.57,0.54,0.59,1.53,-1.42,-0.58,-2.57,-22.01,-3.06,4
3273588,-0.57,0.54,0.59,1.53,-1.16,-0.08,-2.57,-22.01,-3.06,4
3273600,-0.57,0.54,0.59,1.49,-1.08,0.14,-2.57,-22.01,-3.06,4
3273613,-0.57,0.54,0.59,1.68,-1.05,0.14,-2.57,-22.01,-3.06,4
3273625,-0.57,0.54,0.59,1.63,-1.02,0.09,-2.6,-22.08,-3.07,4
3273635,-0.57,0.54,0.59,1.61,-1.0,0.11,-2.6,-22.08,-3.07,4
3273648,-0.57,0.54,0.59,1.71,-0.93,0.38,-2.6,-22.08,-3.07,4
3273659,-0.57,0.54,0.59,1.76,-0.98,0.56,-2.6,-22.08,-3.07,4
3273670,-0.57,0.54,0.59,1.79,-1.05,0.75,-2.53,-22.05,-2.98,4
3273681,-0.57,0.54,0.59,1.81,-1.09,0.85,-2.53,-22.05,-2.98,4
3273693,-0.58,0.54,0.59,1.82,-1.08,0.77,-2.53,-22.05,-2.98,4
3273705,-0.58,0.54,0.59,1.82,-1.11,0.55,-2.53,-22.05,-2.98,4
3273718,-0.57,0.53,0.59,1.91,-1.29,-0.1,-2.62,-22.08,-2.85,4
3273728,-0.57,0.53,0.59,1.83,-1.4,-0.17,-2.62,-22.08,-2.85,4
3273740,-0.57,0.53,0.59,1.67,-1.48,0.02,-2.62,-22.08,-2.85,4
3273752,-0.57,0.54,0.59,1.68,-1.47,0.19,-2.62,-22.08,-2.85,4
3273764,-0.57,0.53,0.59,1.66,-1.46,0.39,-2.65,-22.07,-2.87,4
3273776,-0.58,0.53,0.59,1.46,-1.35,0.78,-2.65,-22.07,-2.87,4
3273787,-0.58,0.53,0.59,1.4,-1.28,0.54,-2.65,-22.07,-2.87,4
3273798,-0.58,0.53,0.59,1.4,-1.31,0.11,-2.65,-22.07,-2.87,4
3273810,-0.58,0.53,0.59,1.35,-1.47,-0.51,-2.65,-22.07,-2.87,4
3273821,-0.58,0.54,0.59,1.42,-1.44,-0.46,-2.69,-21.98,-2.85,4
3273833,-0.58,0.54,0.59,1.35,-1.23,-0.19,-2.69,-21.98,-2.85,4
3273845,-0.57,0.53,0.59,1.29,-1.0,0.32,-2.69,-21.98,-2.85,4
3273857,-0.58,0.53,0.58,1.29,-1.0,0.27,-2.69,-21.98,-2.85,4
3273868,-0.58,0.54,0.58,1.42,-1.07,-0.06,-2.61,-21.94,-2.83,4
3273880,-0.57,0.53,0.59,1.61,-1.28,-0.52,-2.61,-21.94,-2.83,4
3273891,-0.57,0.53,0.59,1.63,-1.25,-0.49,-2.61,-21.94,-2.83,4
3273901,-0.58,0.53,0.59,1.62,-1.22,-0.34,-2.61,-21.94,-2.83,4
3273916,-0.58,0.54,0.59,1.47,-1.13,-0.14,-2.49,-21.93,-2.71,4
3273927,-0.57,0.54,0.59,1.44,-1.14,-0.14,-2.49,-21.93,-2.71,4
3273940,-0.57,0.54,0.59,1.38,-1.1,0.02,-2.49,-21.93,-2.71,4
3273951,-0.57,0.54,0.59,1.42,-1.1,0.31,-2.49,-21.93,-2.71,4
3273962,-0.57,0.54,0.59,1.39,-1.07,0.76,-2.49,-21.93,-2.71,4
3273975,-0.58,0.54,0.59,1.36,-0.96,1.2,-2.46,-21.92,-2.49,4
3273985,-0.58,0.54,0.59,1.57,-0.97,0.96,-2.46,-21.92,-2.49,4
3273996,-0.58,0.53,0.59,1.67,-1.01,0.67,-2.46,-21.92,-2.49,4
3274009,-0.57,0.54,0.59,1.52,-1.2,0.27,-2.46,-21.92,-2.49,4
3274020,-0.57,0.54,0.59,1.7,-1.25,0.04,-2.47,-21.86,-2.4,4
3274032,-0.57,0.54,0.59,1.85,-1.19,-0.1,-2.47,-21.86,-2.4,4
3274044,-0.57,0.53,0.59,1.82,-1.17,-0.06,-2.47,-21.86,-2.4,4
3274056,-0.57,0.53,0.59,1.89,-1.11,-0.04,-2.47,-21.86,-2.4,4
3274069,-0.58,0.53,0.59,1.57,-1.03,-0.01,-2.48,-21.92,-2.5,4
3274081,-0.58,0.53,0.59,1.38,-0.98,0.02,-2.48,-21.92,-2.5,4
3274095,-0.58,0.54,0.59,1.36,-0.83,-0.04,-2.48,-21.92,-2.5,4
3274106,-0.57,0.54,0.59,1.4,-0.78,-0.07,-2.48,-21.92,-2.5,4
3274119,-0.57,0.54,0.58,1.58,-0.96,-0.12,-2.49,-21.97,-2.55,4
3274130,-0.57,0.54,0.58,1.71,-1.04,-0.2,-2.49,-21.97,-2.55,4
3274142,-0.57,0.54,0.58,1.75,-1.07,-0.2,-2.49,-21.97,-2.55,4
3274153,-0.57,0.54,0.59,1.89,-1.12,0.1,-2.49,-21.97,-2.55,4
3274165,-0.57,0.53,0.59,1.85,-1.09,0.22,-2.52,-21.98,-2.65,4
3274177,-0.58,0.53,0.59,1.67,-1.04,0.34,-2.52,-21.98,-2.65,4
3274189,-0.58,0.53,0.59,1.57,-1.05,0.23,-2.52,-21.98,-2.65,4
3274201,-0.58,0.54,0.59,1.59,-1.0,0.07,-2.52,-21.98,-2.65,4
3274216,-0.57,0.54,0.59,1.68,-1.09,-0.32,-2.55,-21.98,-2.53,4
3274227,-0.57,0.54,0.59,1.66,-1.11,-0.37,-2.55,-21.98,-2.53,4
3274239,-0.57,0.54,0.59,1.59,-1.07,-0.27,-2.55,-21.98,-2.53,4
3274250,-0.57,0.54,0.59,1.72,-1.06,-0.21,-2.55,-21.98,-2.53,4
3274262,-0.57,0.53,0.59,1.75,-1.08,-0.26,-2.55,-21.98,-2.53,4
3274275,-0.58,0.53,0.59,1.65,-1.19,-0.57,-2.56,-22.0,-2.68,4
3274287,-0.58,0.53,0.59,1.57,-1.21,-0.68,-2.56,-22.0,-2.68,4
3274301,-0.57,0.54,0.59,1.38,-1.09,-0.38,-2.56,-22.0,-2.68,4
3274314,-0.57,0.54,0.59,1.33,-1.01,-0.07,-2.48,-21.95,-2.58,4
3274326,-0.57,0.54,0.59,1.4,-1.01,0.25,-2.48,-21.95,-2.58,4
3274338,-0.57,0.54,0.59,1.36,-1.0,0.18,-2.48,-21.95,-2.58,4
3274352,-0.57,0.54,0.59,1.41,-0.94,0.21,-2.48,-21.95,-2.58,4
3274364,-0.57,0.54,0.59,1.47,-0.86,0.4,-2.31,-22.0,-2.51,4
3274375,-0.57,0.54,0.58,1.61,-0.76,0.56,-2.31,-22.0,-2.51,4
3274387,-0.57,0.54,0.59,1.89,-0.9,0.17,-2.31,-22.0,-2.51,4
3274399,-0.58,0.54,0.59,1.89,-1.02,-0.04,-2.31,-22.0,-2.51,4
3274413,-0.58,0.53,0.59,1.8,-1.23,-0.32,-2.39,-22.03,-2.7,4
3274425,-0.58,0.53,0.59,1.78,-1.31,-0.31,-2.39,-22.03,-2.7,4
3274438,-0.57,0.53,0.59,1.69,-1.48,-0.41,-2.39,-22.03,-2.7,4
3274450,-0.57,0.53,0.59,1.64,-1.59,-0.4,-2.39,-22.03,-2.7,4
3274465,-0.57,0.53,0.59,1.43,-1.61,-0.16,-2.43,-21.92,-2.87,4
3274477,-0.57,0.54,0.59,1.31,-1.54,-0.02,-2.43,-21.92,-2.87,4
3274488,-0.57,0.54,0.59,1.26,-1.31,0.17,-2.43,-21.92,-2.87,4
3274499,-0.57,0.54,0.58,1.37,-1.27,0.2,-2.43,-21.92,-2.87,4
3274511,-0.57,0.54,0.58,1.42,-1.25,0.37,-2.43,-21.92,-2.87,4
3274524,-0.57,0.53,0.58,1.75,-1.16,0.77,-2.46,-21.9,-2.66,4
3274536,-0.57,0.53,0.59,1.91,-1.08,0.84,-2.46,-21.9,-2.66,4
3274550,-0.58,0.53,0.59,1.8,-1.02,0.77,-2.46,-21.9,-2.66,4
3274561,-0.58,0.53,0.59,1.76,-1.01,0.6,-2.46,-21.9,-2.66,4
3274574,-0.58,0.53,0.59,1.51,-0.96,0.06,-2.5,-21.77,-2.46,4
3274585,-0.57,0.53,0.59,1.47,-0.98,-0.25,-2.5,-21.77,-2.46,4
3274597,-0.57,0.54,0.59,1.48,-1.03,-0.37,-2.5,-21.77,-2.46,4
3274608,-0.57,0.54,0.59,1.71,-1.03,-0.33,-2.5,-21.77,-2.46,4
3274620,-0.57,0.54,0.59,1.79,-1.03,-0.22,-2.46,-21.67,-2.55,4
3274632,-0.57,0.54,0.59,1.81,-0.97,-0.02,-2.46,-21.67,-2.55,4
3274644,-0.57,0.54,0.59,1.73,-0.94,0.31,-2.46,-21.67,-2.55,4
3274656,-0.57,0.54,0.59,1.8,-0.96,0.39,-2.46,-21.67,-2.55,4
3274668,-0.57,0.54,0.59,1.91,-1.01,0.51,-2.34,-21.71,-2.71,4
3274679,-0.58,0.53,0.59,1.89,-1.0,0.4,-2.34,-21.71,-2.71,4
3274690,-0.58,0.53,0.59,1.84,-0.97,0.07,-2.34,-21.71,-2.71,4
3274703,-0.58,0.53,0.59,1.62,-1.09,-0.62,-2.34,-21.71,-2.71,4
3274715,-0.58,0.53,0.59,1.49,-1.16,-0.83,-2.32,-21.67,-2.69,4
3274728,-0.58,0.54,0.59,1.19,-1.12,-0.65,-2.32,-21.67,-2.69,4
3274739,-0.57,0.54,0.59,1.06,-1.11,-0.4,-2.32,-21.67,-2.69,4
3274751,-0.57,0.54,0.58,1.12,-1.16,-0.26,-2.32,-21.67,-2.69,4
3274766,-0.57,0.54,0.58,1.4,-1.3,-0.04,-2.4,-21.78,-2.79,4
3274778,-0.57,0.54,0.58,1.54,-1.33,0.21,-2.4,-21.78,-2.79,4
3274790,-0.57,0.54,0.59,1.84,-1.33,0.54,-2.4,-21.78,-2.79,4
3274802,-0.58,0.54,0.59,1.91,-1.26,0.54,-2.4,-21.78,-2.79,4
3274813,-0.58,0.54,0.59,1.97,-1.19,0.37,-2.4,-21.74,-2.84,4
3274824,-0.58,0.53,0.59,1.98,-1.13,0.1,-2.4,-21.74,-2.84,4
3274836,-0.57,0.53,0.59,1.85,-1.07,0.04,-2.4,-21.74,-2.84,4
3274850,-0.57,0.53,0.59,1.62,-1.03,0.1,-2.4,-21.74,-2.84,4
3274863,-0.57,0.54,0.59,1.61,-1.03,0.06,-2.4,-21.75,-2.86,4
3274873,-0.57,0.54,0.59,1.62,-1.06,-0.11,-2.4,-21.75,-2.86,4
3274885,-0.57,0.54,0.59,1.6,-1.2,3.01,-2.4,-21.75,-2.86,4
3274897,-0.57,0.54,0.59,1.69,-1.22,2.37,-2.4,-21.75,-2.86,4
3274911,-0.57,0.54,0.59,1.6,-1.03,2.14,-2.4,-21.75,-2.86,4
3274922,-0.57,0.54,0.59,1.62,-0.92,2.02,-2.37,-21.76,-2.96,4
3274934,-0.58,0.54,0.59,1.69,-0.83,1.37,-2.37,-21.76,-2.96,4
3274946,-0.58,0.53,0.59,1.64,-0.89,1.02,-2.37,-21.76,-2.96,4
3274956,-0.58,0.53,0.59,1.71,-0.96,0.58,-2.37,-21.76,-2.96,4
3274967,-0.58,0.53,0.59,1.82,-1.07,0.21,-2.31,-21.85,-2.7,4
3274979,-0.58,0.54,0.59,1.71,-1.33,-0.23,-2.31,-21.85,-2.7,4
3274991,-0.58,0.54,0.59,1.65,-1.32,-0.34,-2.31,-21.85,-2.7,4
3275005,-0.57,0.53,0.59,1.71,-1.28,-0.6,-2.31,-21.85,-2.7,4
3275016,-0.57,0.53,0.59,1.61,-1.29,-0.74,-2.3,-21.83,-2.65,4
3275027,-0.57,0.54,0.59,1.5,-1.36,-0.82,-2.3,-21.83,-2.65,4
3275039,-0.58,0.54,0.59,1.33,-1.17,-0.76,-2.3,-21.83,-2.65,4
3275051,-0.57,0.54,0.59,1.36,-1.03,-0.62,-2.3,-21.83,-2.65,4
3275065,-0.57,0.54,0.58,1.4,-0.91,-0.19,-2.37,-21.83,-2.82,4
3275077,-0.57,0.54,0.58,1.47,-0.89,0.04,-2.37,-21.83,-2.82,4
3275089,-0.57,0.54,0.58,1.8,-0.95,0.29,-2.37,-21.83,-2.82,4
3275100,-0.57,0.54,0.58,1.96,-1.03,0.44,-2.37,-21.83,-2.82,4
3275113,-0.58,0.54,0.59,2.0,-1.1,0.52,-2.46,-21.77,-2.66,4
3275125,-0.58,0.53,0.59,1.86,-1.25,0.27,-2.46,-21.77,-2.66,4
3275135,-0.58,0.53,0.59,1.78,-1.31,0.08,-2.46,-21.77,-2.66,4
3275146,-0.58,0.53,0.59,1.75,-1.41,-0.09,-2.46,-21.77,-2.66,4
3275158,-0.58,0.54,0.59,1.7,-1.46,-0.22,-2.46,-21.77,-2.66,4
3275170,-0.57,0.54,0.59,1.58,-1.46,-0.26,-2.53,-21.74,-2.65,4
3275182,-0.57,0.54,0.59,1.46,-1.49,-0.31,-2.53,-21.74,-2.65,4
3275194,-0.57,0.54,0.58,1.51,-1.5,-0.5,-2.53,-21.74,-2.65,4
3275206,-0.57,0.54,0.58,1.64,-1.46,-0.43,-2.53,-21.74,-2.65,4
3275219,-0.57,0.54,0.58,1.64,-1.33,0.18,-2.59,-21.7,-2.71,4
3275230,-0.57,0.54,0.58,1.61,-1.21,0.38,-2.59,-21.7,-2.71,4
3275241,-0.57,0.54,0.58,1.62,-1.15,0.47,-2.59,-21.7,-2.71,4
3275254,-0.57,0.54,0.59,1.81,-1.27,0.39,-2.59,-21.7,-2.71,4
3275265,-0.58,0.54,0.59,1.85,-1.34,0.22,-2.58,-21.69,-2.9,4
3275275,-0.58,0.54,0.59,1.91,-1.38,0.12,-2.58,-21.69,-2.9,4
3275288,-0.58,0.54,0.59,1.75,-1.27,-0.22,-2.58,-21.69,-2.9,4
3275300,-0.58,0.54,0.59,1.68,-1.3,-0.47,-2.58,-21.69,-2.9,4
3275315,-0.57,0.53,0.59,1.68,-1.28,-0.75,-2.59,-21.75,-3.05,4
3275327,-0.57,0.54,0.59,1.61,-1.25,-0.77,-2.59,-21.75,-3.05,4
3275340,-0.57,0.54,0.59,1.49,-1.14,-0.51,-2.59,-21.75,-3.05,4
3275352,-0.57,0.54,0.59,1.38,-1.09,-0.31,-2.59,-21.75,-3.05,4
3275363,-0.57,0.54,0.58,1.4,-1.01,-0.17,-2.6,-21.85,-3.16,4
3275374,-0.57,0.54,0.59,1.51,-0.99,-0.19,-2.6,-21.85,-3.16,4
3275386,-0.57,0.54,0.59,1.55,-1.02,-0.23,-2.6,-21.85,-3.16,4
3275400,-0.57,0.54,0.59,1.55,-1.05,-0.19,-2.6,-21.85,-3.16,4
3275412,-0.57,0.54,0.59,1.61,-1.06,-0.06,-2.68,-21.82,-3.29,4
3275424,-0.57,0.54,0.58,1.58,-1.11,0.43,-2.68,-21.82,-3.29,4
3275435,-0.57,0.54,0.59,1.62,-1.04,0.69,-2.68,-21.82,-3.29,4
3275445,-0.57,0.54,0.59,1.67,-1.0,0.93,-2.68,-21.82,-3.29,4
3275456,-0.58,0.54,0.59,1.72,-0.93,0.98,-2.68,-21.82,-3.29,4
3275470,-0.58,0.53,0.59,1.75,-1.01,0.49,-2.57,-21.75,-3.18,4
3275481,-0.58,0.53,0.59,1.67,-0.99,0.1,-2.57,-21.75,-3.18,4
3275493,-0.57,0.53,0.59,1.52,-1.07,-0.51,-2.57,-21.75,-3.18,4
3275504,-0.57,0.54,0.59,1.56,-1.11,-0.56,-2.57,-21.75,-3.18,4
3275515,-0.57,0.54,0.59,1.57,-1.08,-0.4,-2.6,-21.77,-3.35,4
3275529,-0.57,0.54,0.59,1.56,-1.02,0.06,-2.6,-21.77,-3.35,4
3275541,-0.57,0.54,0.59,1.62,-0.98,0.22,-2.6,-21.77,-3.35,4
3275554,-0.57,0.54,0.59,1.52,-1.04,0.12,-2.6,-21.77,-3.35,4
3275566,-0.57,0.54,0.59,1.53,-1.12,0.1,-2.62,-21.68,-3.19,4
3275579,-0.58,0.54,0.59,1.57,-1.04,0.45,-2.62,-21.68,-3.19,4
3275590,-0.58,0.54,0.58,1.65,-0.93,0.64,-2.62,-21.68,-3.19,4
3275601,-0.57,0.54,0.58,1.77,-0.9,0.64,-2.62,-21.68,-3.19,4
3275614,-0.57,0.54,0.59,1.85,-0.93,0.32,-2.53,-21.72,-3.2,4
3275624,-0.57,0.54,0.59,1.82,-1.0,0.09,-2.53,-21.72,-3.2,4
3275634,-0.57,0.54,0.59,1.81,-1.03,-0.07,-2.53,-21.72,-3.2,4
3275645,-0.58,0.54,0.59,1.73,-1.06,-0.04,-2.53,-21.72,-3.2,4
3275658,-0.57,0.54,0.59,1.54,-0.97,0.05,-2.53,-21.72,-3.2,4
3275669,-0.57,0.54,0.59,1.67,-1.0,-0.11,-2.43,-21.78,-3.14,4
3275681,-0.57,0.54,0.59,1.51,-1.22,-0.3,-2.43,-21.78,-3.14,4
3275693,-0.58,0.54,0.59,1.49,-1.24,-0.29,-2.43,-21.78,-3.14,4
3275705,-0.58,0.54,0.58,1.56,-1.19,-0.2,-2.43,-21.78,-3.14,4
3275718,-0.57,0.54,0.58,1.65,-1.12,-0.05,-2.38,-21.67,-3.25,4
3275730,-0.57,0.54,0.59,1.65,-1.14,-0.03,-2.38,-21.67,-3.25,4
3275741,-0.57,0.54,0.59,1.58,-1.15,0.07,-2.38,-21.67,-3.25,4
3275753,-0.57,0.54,0.59,1.58,-1.11,0.24,-2.38,-21.67,-3.25,4
3275764,-0.58,0.54,0.59,1.68,-1.04,0.35,-2.38,-21.7,-3.21,4
3275777,-0.57,0.54,0.59,1.77,-0.9,0.32,-2.38,-21.7,-3.21,4
3275788,-0.57,0.54,0.59,1.55,-0.91,0.21,-2.38,-21.7,-3.21,4
3275798,-0.57,0.54,0.59,1.49,-1.01,-0.06,-2.38,-21.7,-3.21,4
3275811,-0.57,0.54,0.59,1.63,-1.12,-0.41,-2.36,-21.68,-3.22,4
3275822,-0.57,0.54,0.59,1.57,-1.2,-0.5,-2.36,-21.68,-3.22,4
3275833,-0.57,0.54,0.59,1.54,-1.26,-0.51,-2.36,-21.68,-3.22,4
3275846,-0.57,0.54,0.59,1.39,-1.36,-0.24,-2.36,-21.68,-3.22,4
3275858,-0.57,0.54,0.59,1.33,-1.5,-0.16,-2.36,-21.68,-3.22,4
3275870,-0.57,0.54,0.58,1.54,-1.84,-0.18,-2.39,-21.66,-3.28,4
3275881,-0.58,0.54,0.58,1.6,-1.98,-0.26,-2.39,-21.66,-3.28,4
3275892,-0.58,0.54,0.58,1.64,-2.07,-0.31,-2.39,-21.66,-3.28,4
3275904,-0.58,0.54,0.58,1.6,-2.13,-0.63,-2.39,-21.66,-3.28,4
3275917,-0.58,0.54,0.59,1.52,-2.13,-0.77,-2.45,-21.72,-3.24,4
3275929,-0.57,0.54,0.59,1.45,-2.12,-0.87,-2.45,-21.72,-3.24,4
3275941,-0.57,0.54,0.59,1.4,-1.97,-0.61,-2.45,-21.72,-3.24,4
3275953,-0.57,0.54,0.59,1.39,-1.92,-0.37,-2.45,-21.72,-3.24,4
3275966,-0.57,0.54,0.59,1.63,-1.86,-0.36,-2.49,-21.71,-3.15,4
3275978,-0.57,0.54,0.59,1.67,-1.88,-0.6,-2.49,-21.71,-3.15,4
3275991,-0.57,0.54,0.59,1.5,-2.03,-0.85,-2.49,-21.71,-3.15,4
3276003,-0.57,0.54,0.59,1.42,-1.96,-0.7,-2.49,-21.71,-3.15,4
3276014,-0.58,0.54,0.59,1.3,-1.86,-0.34,-2.51,-21.73,-3.13,4
3276025,-0.58,0.54,0.58,1.12,-1.63,-0.01,-2.51,-21.73,-3.13,4
3276036,-0.57,0.54,0.58,1.19,-1.62,-0.18,-2.51,-21.73,-3.13,4
3276048,-0.57,0.54,0.58,1.27,-1.68,-0.43,-2.51,-21.73,-3.13,4
3276059,-0.57,0.54,0.58,1.17,-1.89,-0.67,-2.51,-21.73,-3.13,4
3276071,-0.58,0.54,0.58,1.05,-1.97,-0.62,-2.36,-21.8,-3.14,4
3276083,-0.58,0.54,0.58,0.88,-1.96,-0.48,-2.36,-21.8,-3.14,4
3276096,-0.58,0.54,0.58,0.7,-1.9,-0.15,-2.36,-21.8,-3.14,4
3276108,-0.58,0.54,0.58,0.65,-1.81,0.11,-2.36,-21.8,-3.14,4
3276121,-0.58,0.54,0.58,0.41,-1.64,0.69,-2.29,-21.78,-3.08,4
3276131,-0.58,0.54,0.58,0.49,-1.43,0.8,-2.29,-21.78,-3.08,4
3276141,-0.58,0.54,0.58,0.57,-1.33,0.69,-2.29,-21.78,-3.08,4
3276151,-0.58,0.54,0.58,0.51,-1.34,0.47,-2.29,-21.78,-3.08,4
3276162,-0.58,0.54,0.58,0.32,-1.44,0.27,-2.25,-21.8,-2.88,4
3276173,-0.58,0.55,0.58,0.13,-1.57,0.18,-2.25,-21.8,-2.88,4
3276183,-0.57,0.54,0.58,3.49,-1.57,0.27,-2.25,-21.8,-2.88,4
3276194,-0.57,0.54,0.58,2.96,-1.56,0.44,-2.25,-21.8,-2.88,4
3276207,-0.58,0.54,0.58,2.15,-1.37,0.9,-2.25,-21.8,-2.88,4
3276218,-0.58,0.54,0.58,1.82,-1.24,1.15,-2.41,-21.7,-2.77,4
3276228,-0.58,0.54,0.58,1.45,-1.18,1.34,-2.41,-21.7,-2.77,4
3276241,-0.58,0.54,0.58,0.92,-1.26,1.2,-2.41,-21.7,-2.77,4
3276253,-0.58,0.54,0.58,0.72,-1.33,1.19,-2.41,-21.7,-2.77,4
3276265,-0.58,0.54,0.58,0.25,-1.43,1.22,-2.44,-21.74,-2.64,4
3276276,-0.57,0.54,0.58,0.25,-1.56,1.1,-2.44,-21.74,-2.64,4
3276288,-0.57,0.54,0.58,0.15,-1.73,0.92,-2.44,-21.74,-2.64,4
3276302,-0.58,0.54,0.58,0.16,-2.03,0.57,-2.44,-21.74,-2.64,4
3276313,-0.58,0.54,0.58,0.15,-2.09,0.46,-2.44,-21.78,-2.79,4
3276323,-0.58,0.54,0.58,-0.04,-2.09,0.48,-2.44,-21.78,-2.79,4
3276334,-0.58,0.54,0.58,-0.53,-2.08,0.56,-2.44,-21.78,-2.79,4
3276345,-0.57,0.54,0.58,-0.69,-2.18,0.53,-2.44,-21.78,-2.79,4
3276357,-0.57,0.54,0.58,-0.97,-2.36,0.39,-2.44,-21.78,-2.79,4
3276370,-0.57,0.54,0.58,-1.53,-2.97,0.24,-2.45,-21.67,-2.93,4
3276382,-0.58,0.54,0.58,-1.68,-3.23,0.3,-2.45,-21.67,-2.93,4
3276396,-0.58,0.54,0.57,-2.12,-3.54,0.73,-2.45,-21.67,-2.93,4
3276407,-0.58,0.54,0.56,-2.24,-3.74,0.96,-2.45,-21.67,-2.93,4
3276419,-0.58,0.55,0.56,-2.19,-4.1,1.03,-2.56,-21.78,-2.8,4
3276431,-0.59,0.55,0.57,-2.01,-4.09,0.54,-2.56,-21.78,-2.8,4
3276442,-0.58,0.55,0.57,-2.03,-3.82,0.73,-2.56,-21.78,-2.8,4
3276453,-0.58,0.55,0.57,-1.9,-3.45,0.92,-2.56,-21.78,-2.8,4
3276466,-0.58,0.55,0.57,-1.83,-3.07,1.13,-2.57,-21.82,-2.58,4
3276477,-0.58,0.54,0.57,-1.89,-3.13,1.19,-2.57,-21.82,-2.58,4
3276488,-0.58,0.54,0.57,-2.78,-3.79,1.77,-2.57,-21.82,-2.58,4
3276500,-0.59,0.54,0.57,-3.54,-4.15,2.34,-2.57,-21.82,-2.58,4
3276511,-0.59,0.54,0.57,-3.97,-4.39,2.8,-2.65,-21.79,-2.45,4
3276524,-0.59,0.55,0.56,-4.7,-4.4,3.72,-2.65,-21.79,-2.45,4
3276535,-0.59,0.55,0.56,-4.93,-4.3,4.03,-2.65,-21.79,-2.45,4
3276546,-0.59,0.55,0.56,-4.97,-4.28,4.16,-2.65,-21.79,-2.45,4
3276559,-0.59,0.55,0.56,-5.0,-4.59,3.52,-2.65,-21.79,-2.45,4
3276570,-0.59,0.55,0.56,-4.87,-4.83,2.78,-2.67,-21.84,-2.44,4
3276581,-0.59,0.55,0.56,-4.89,-5.07,2.04,-2.67,-21.84,-2.44,4
3276594,-0.6,0.55,0.55,-4.76,-5.33,0.62,-2.67,-21.84,-2.44,4
3276604,-0.6,0.55,0.55,-4.52,-5.34,0.06,-2.67,-21.84,-2.44,4
3276615,-0.6,0.55,0.55,-4.32,-5.19,-0.33,-2.82,-21.85,-2.35,4
3276626,-0.6,0.55,0.55,-4.09,-4.78,-0.74,-2.82,-21.85,-2.35,4
3276637,-0.6,0.55,0.55,-3.86,-4.54,-0.9,-2.82,-21.85,-2.35,4
3276649,-0.6,0.55,0.55,-3.54,-4.3,-1.1,-2.82,-21.85,-2.35,4
3276661,-0.59,0.55,0.55,-2.86,-3.86,-1.45,-2.87,-21.92,-2.09,4
3276673,-0.59,0.56,0.54,-2.53,-3.71,-1.56,-2.87,-21.92,-2.09,4
3276685,-0.59,0.56,0.54,-2.18,-3.59,-1.63,-2.87,-21.92,-2.09,4
3276696,-0.59,0.56,0.54,-1.76,-3.48,-1.6,-2.87,-21.92,-2.09,4
3276708,-0.59,0.56,0.54,-1.36,-3.27,-1.5,-2.87,-21.92,-2.09,4
3276719,-0.6,0.56,0.54,-0.79,-2.98,-1.41,-2.94,-21.93,-1.84,4
3276731,-0.6,0.56,0.55,-0.37,-2.78,-1.33,-2.94,-21.93,-1.84,4
3276742,-0.6,0.56,0.55,-0.33,-2.65,-1.28,-2.94,-21.93,-1.84,4
3276753,-0.6,0.55,0.54,-0.59,-2.75,-1.37,-2.94,-21.93,-1.84,4
3276766,-0.6,0.56,0.54,-1.02,-3.04,-1.69,-2.94,-21.97,-1.71,4
3276778,-0.6,0.56,0.54,-1.44,-3.12,-1.7,-2.94,-21.97,-1.71,4
3276791,-0.6,0.57,0.54,-2.04,-3.16,-1.13,-2.94,-21.97,-1.71,4
3276803,-0.6,0.57,0.53,-2.09,-3.12,-0.84,-2.94,-21.97,-1.71,4
3276816,-0.59,0.57,0.53,-2.08,-3.22,-0.69,-2.94,-21.96,-1.42,4
3276827,-0.59,0.57,0.53,-2.06,-3.36,-0.64,-2.94,-21.96,-1.42,4
3276838,-0.59,0.57,0.53,-2.03,-3.48,-0.55,-2.94,-21.96,-1.42,4
3276851,-0.59,0.57,0.53,-2.05,-3.75,0.18,-2.94,-21.96,-1.42,4
3276862,-0.59,0.57,0.53,-2.08,-3.69,0.82,-2.99,-22.0,-1.41,4
3276874,-0.6,0.57,0.53,-2.01,-3.58,1.42,-2.99,-22.0,-1.41,4
3276886,-0.6,0.57,0.53,-1.29,-3.12,1.93,-2.99,-22.0,-1.41,4
3276897,-0.6,0.57,0.53,-0.92,-2.88,1.93,-2.99,-22.0,-1.41,4
3276908,-0.6,0.56,0.53,-0.67,-2.69,1.74,-2.99,-22.0,-1.41,4
3276921,-0.61,0.56,0.53,-0.77,-2.67,0.81,-3.02,-21.96,-1.27,4
3276932,-0.61,0.56,0.53,-1.16,-2.77,0.28,-3.02,-21.96,-1.27,4
3276946,-0.6,0.57,0.53,-1.74,-3.01,-0.3,-3.02,-21.96,-1.27,4
3276958,-0.6,0.57,0.53,-1.9,-2.96,-0.18,-3.02,-21.96,-1.27,4
3276971,-0.6,0.57,0.52,-1.8,-2.7,0.65,-3.05,-21.95,-0.95,4
3276983,-0.6,0.57,0.52,-1.38,-2.54,0.64,-3.05,-21.95,-0.95,4
3276997,-0.6,0.57,0.52,-0.26,-2.64,-0.21,-3.05,-21.95,-0.95,4
3277009,-0.6,0.57,0.52,-0.09,-2.77,-0.59,-3.07,-21.98,-0.66,4
3277020,-0.6,0.58,0.52,0.09,-2.78,-0.6,-3.07,-21.98,-0.66,4
3277032,-0.6,0.58,0.52,0.59,-2.25,0.84,-3.07,-21.98,-0.66,4
3277043,-0.6,0.58,0.52,0.81,-1.8,2.0,-3.07,-21.98,-0.66,4
3277057,-0.61,0.57,0.52,1.62,-1.05,3.26,-3.07,-21.98,-0.66,4
3277068,-0.61,0.57,0.52,1.84,-1.04,2.92,-3.1,-21.98,-0.42,4
3277080,-0.62,0.57,0.52,1.67,-1.24,2.06,-3.1,-21.98,-0.42,4
3277092,-0.61,0.57,0.53,1.27,-1.75,0.44,-3.1,-21.98,-0.42,4
3277102,-0.6,0.57,0.53,1.24,-1.77,0.2,-3.1,-21.98,-0.42,4
3277113,-0.6,0.57,0.52,1.06,-1.65,0.41,-3.12,-21.97,-0.32,4
3277123,-0.6,0.57,0.52,0.86,-1.51,1.05,-3.12,-21.97,-0.32,4
3277135,-0.6,0.57,0.52,0.71,-1.19,1.91,-3.12,-21.97,-0.32,4
3277145,-0.61,0.56,0.52,0.88,-1.19,1.53,-3.12,-21.97,-0.32,4
3277155,-0.61,0.57,0.52,1.09,-1.37,0.72,-3.12,-21.97,-0.32,4
3277166,-0.61,0.57,0.52,1.19,-1.68,-0.04,-3.13,-22.08,-0.34,4
3277178,-0.6,0.58,0.52,1.33,-2.07,-0.63,-3.13,-22.08,-0.34,4
3277189,-0.6,0.58,0.52,1.55,-1.92,-0.23,-3.13,-22.08,-0.34,4
3277200,-0.6,0.58,0.52,1.72,-1.58,0.53,-3.13,-22.08,-0.34,4
3277213,-0.6,0.57,0.52,1.93,-0.93,1.85,-3.15,-22.12,-0.45,4
3277223,-0.61,0.56,0.52,2.16,-0.79,1.8,-3.15,-22.12,-0.45,4
3277233,-0.61,0.56,0.53,2.17,-0.75,1.46,-3.15,-22.12,-0.45,4
3277243,-0.61,0.56,0.53,1.97,-0.87,0.94,-3.15,-22.12,-0.45,4
3277255,-0.61,0.57,0.52,1.67,-1.24,-0.28,-3.15,-22.12,-0.45,4
3277266,-0.6,0.57,0.52,1.57,-1.38,-0.58,-3.19,-22.16,-0.3,4
3277278,-0.6,0.57,0.52,1.36,-1.45,-0.24,-3.19,-22.16,-0.3,4
3277290,-0.6,0.57,0.52,1.39,-1.49,0.13,-3.19,-22.16,-0.3,4
3277300,-0.61,0.57,0.52,1.46,-1.53,0.29,-3.19,-22.16,-0.3,4
3277311,-0.61,0.57,0.52,1.39,-1.55,0.16,-3.25,-22.15,-0.29,4
3277322,-0.61,0.57,0.52,1.23,-1.59,-0.41,-3.25,-22.15,-0.29,4
3277333,-0.61,0.57,0.52,1.08,-1.54,-0.62,-3.25,-22.15,-0.29,4
3277345,-0.61,0.57,0.52,0.88,-1.52,-0.64,-3.25,-22.15,-0.29,4
3277355,-0.61,0.57,0.52,0.74,-1.43,-0.57,-3.25,-22.15,-0.29,4
3277368,-0.6,0.57,0.52,0.77,-1.49,-0.33,-3.39,-22.1,0.04,4
3277379,-0.6,0.57,0.52,0.84,-1.45,-0.19,-3.39,-22.1,0.04,4
3277391,-0.6,0.57,0.52,1.28,-1.11,0.24,-3.39,-22.1,0.04,4
3277402,-0.61,0.57,0.52,1.58,-0.81,0.51,-3.39,-22.1,0.04,4
3277412,-0.61,0.57,0.52,1.81,-0.44,0.65,-3.33,-22.07,-0.19,4
3277423,-0.61,0.57,0.52,2.04,-0.16,0.59,-3.33,-22.07,-0.19,4
3277435,-0.61,0.57,0.52,2.2,0.12,-0.11,-3.33,-22.07,-0.19,4
3277445,-0.6,0.57,0.52,2.18,0.2,-0.32,-3.33,-22.07,-0.19,4
3277455,-0.6,0.57,0.52,2.25,0.35,-0.42,-3.33,-22.07,-0.19,4
3277466,-0.6,0.57,0.52,2.44,0.38,-0.4,-3.28,-22.02,-0.11,4
3277478,-0.6,0.57,0.52,3.32,0.54,-0.0,-3.28,-22.02,-0.11,4
3277488,-0.6,0.57,0.52,3.86,0.83,0.19,-3.28,-22.02,-0.11,4
3277498,-0.61,0.57,0.52,4.43,1.36,0.32,-3.28,-22.02,-0.11,4
3277509,-0.61,0.57,0.52,5.08,2.17,0.4,-3.46,-21.95,-0.15,4
3277521,-0.6,0.57,0.53,5.98,3.38,0.41,-3.46,-21.95,-0.15,4
3277531,-0.6,0.57,0.53,6.06,3.54,0.35,-3.46,-21.95,-0.15,4
3277541,-0.6,0.57,0.53,5.97,3.42,0.31,-3.46,-21.95,-0.15,4
3277551,-0.6,0.57,0.53,5.69,3.0,0.35,-3.46,-21.95,-0.15,4
3277564,-0.6,0.57,0.53,5.21,2.01,0.51,-3.44,-21.98,-0.13,4
3277575,-0.61,0.56,0.53,5.14,1.67,0.45,-3.44,-21.98,-0.13,4
3277588,-0.61,0.56,0.53,4.85,1.23,-0.33,-3.44,-21.98,-0.13,4
3277599,-0.61,0.56,0.54,4.54,0.95,-0.82,-3.44,-21.98,-0.13,4
3277610,-0.6,0.56,0.54,4.01,0.59,-1.29,-3.38,-22.04,-0.09,4
3277620,-0.6,0.56,0.53,3.46,0.19,-1.56,-3.38,-22.04,-0.09,4
3277631,-0.59,0.56,0.53,2.9,-0.32,-1.24,-3.38,-22.04,-0.09,4
3277642,-0.59,0.57,0.53,3.06,-0.35,-0.82,-3.38,-22.04,-0.09,4
3277653,-0.6,0.57,0.53,3.55,-0.29,-0.56,-3.38,-22.04,-0.09,4
3277667,-0.6,0.57,0.53,5.02,0.09,-0.62,-3.33,-22.01,-0.35,4
3277677,-0.6,0.57,0.53,5.33,0.34,-0.62,-3.33,-22.01,-0.35,4
3277687,-0.59,0.57,0.53,5.23,0.53,-0.35,-3.33,-22.01,-0.35,4
3277697,-0.59,0.57,0.54,5.02,0.66,0.23,-3.33,-22.01,-0.35,4
3277707,-0.59,0.56,0.54,4.8,0.69,0.93,-3.33,-22.01,-0.35,4
3277720,-0.59,0.56,0.54,4.43,0.3,1.9,-3.37,-22.01,-0.54,4
3277730,-0.6,0.56,0.54,4.14,0.07,2.0,-3.37,-22.01,-0.54,4
3277740,-0.6,0.56,0.54,3.82,-0.2,1.88,-3.37,-22.01,-0.54,4
3277750,-0.6,0.56,0.54,3.49,-0.47,1.55,-3.37,-22.01,-0.54,4
3277763,-0.6,0.56,0.54,2.64,-1.03,0.67,-3.39,-21.84,-0.67,4
3277773,-0.6,0.56,0.54,2.26,-1.18,0.24,-3.39,-21.84,-0.67,4
3277783,-0.6,0.55,0.54,1.99,-1.27,-0.27,-3.39,-21.84,-0.67,4
3277794,-0.6,0.55,0.54,1.57,-1.36,-1.13,-3.39,-21.84,-0.67,4
3277805,-0.6,0.56,0.54,1.32,-1.35,-1.33,-3.39,-21.84,-0.67,4
3277816,-0.6,0.56,0.54,1.26,-1.4,-1.44,-3.35,-21.84,-0.7,4
3277830,-0.6,0.57,0.54,1.43,-1.41,-1.31,-3.35,-21.84,-0.7,4
3277842,-0.59,0.57,0.54,1.44,-1.35,-0.98,-3.35,-21.84,-0.7,4
3277852,-0.59,0.57,0.54,1.42,-1.32,-0.51,-3.35,-21.84,-0.7,4
3277865,-0.59,0.56,0.54,1.68,-1.28,0.43,-3.35,-21.95,-0.89,4
3277877,-0.59,0.56,0.54,1.76,-1.21,0.79,-3.35,-21.95,-0.89,4
3277887,-0.6,0.56,0.54,1.76,-1.16,0.98,-3.35,-21.95,-0.89,4
3277899,-0.6,0.56,0.54,1.81,-1.12,1.06,-3.35,-21.95,-0.89,4
3277910,-0.6,0.56,0.54,1.82,-1.13,0.95,-3.36,-21.97,-1.05,4
3277920,-0.6,0.56,0.54,1.75,-1.06,0.86,-3.36,-21.97,-1.05,4
3277930,-0.6,0.56,0.54,1.6,-0.96,0.83,-3.36,-21.97,-1.05,4
3277942,-0.6,0.56,0.54,1.34,-0.73,0.9,-3.36,-21.97,-1.05,4
3277952,-0.6,0.56,0.54,1.36,-0.69,0.82,-3.36,-21.97,-1.05,4
3277963,-0.6,0.56,0.54,1.5,-0.79,0.47,-3.44,-21.95,-1.04,4
3277973,-0.6,0.56,0.54,1.65,-1.01,-0.01,-3.44,-21.95,-1.04,4
3277985,-0.6,0.56,0.54,1.53,-1.41,-0.65,-3.44,-21.95,-1.04,4
3277997,-0.6,0.56,0.54,1.49,-1.49,-0.64,-3.44,-21.95,-1.04,4
3278008,-0.6,0.56,0.54,1.54,-1.42,-0.39,-3.44,-22.1,-1.06,4
3278019,-0.6,0.56,0.54,1.52,-1.33,0.03,-3.44,-22.1,-1.06,4
3278030,-0.6,0.56,0.54,1.41,-1.27,0.4,-3.44,-22.1,-1.06,4
3278041,-0.6,0.56,0.54,1.41,-1.26,0.73,-3.44,-22.1,-1.06,4
3278052,-0.6,0.56,0.54,1.45,-1.34,1.13,-3.44,-22.1,-1.06,4
3278064,-0.6,0.56,0.54,1.59,-1.39,1.17,-3.35,-22.09,-1.08,4
3278075,-0.6,0.56,0.54,1.63,-1.36,1.06,-3.35,-22.09,-1.08,4
3278087,-0.6,0.56,0.54,1.34,-1.41,0.4,-3.35,-22.09,-1.08,4
3278099,-0.6,0.56,0.54,1.15,-1.43,0.05,-3.35,-22.09,-1.08,4
3278110,-0.6,0.56,0.54,1.06,-1.4,-0.23,-3.25,-22.09,-1.02,4
3278122,-0.6,0.56,0.54,1.15,-1.18,-0.26,-3.25,-22.09,-1.02,4
3278134,-0.6,0.56,0.54,1.24,-1.05,-0.35,-3.25,-22.09,-1.02,4
3278148,-0.6,0.56,0.54,1.28,-0.99,-0.58,-3.25,-22.09,-1.02,4
3278159,-0.6,0.56,0.54,1.16,-1.03,-0.63,-3.27,-22.02,-0.69,4
3278170,-0.6,0.56,0.54,1.05,-1.07,-0.61,-3.27,-22.02,-0.69,4
3278182,-0.59,0.56,0.54,1.21,-1.14,-0.25,-3.27,-22.02,-0.69,4
3278193,-0.59,0.56,0.54,1.3,-1.16,0.15,-3.27,-22.02,-0.69,4
3278203,-0.6,0.56,0.54,1.33,-1.13,0.55,-3.27,-22.02,-0.69,4
3278215,-0.6,0.56,0.54,1.5,-1.05,0.94,-3.24,-22.1,-0.63,4
3278226,-0.6,0.56,0.54,1.57,-0.94,0.77,-3.24,-22.1,-0.63,4
3278236,-0.6,0.56,0.54,1.64,-0.87,0.42,-3.24,-22.1,-0.63,4
3278247,-0.6,0.56,0.54,1.72,-0.87,0.0,-3.24,-22.1,-0.63,4
3278260,-0.6,0.56,0.54,1.76,-0.92,-0.39,-3.3,-22.12,-0.71,4
3278271,-0.6,0.56,0.54,1.63,-0.88,-0.22,-3.3,-22.12,-0.71,4
3278283,-0.59,0.56,0.54,1.4,-0.77,0.27,-3.3,-22.12,-0.71,4
3278294,-0.6,0.56,0.54,1.4,-0.88,0.43,-3.3,-22.12,-0.71,4
3278306,-0.6,0.56,0.54,1.43,-1.07,0.53,-3.3,-22.12,-0.71,4
3278319,-0.6,0.56,0.54,1.46,-1.15,0.85,-3.25,-22.03,-0.69,4
3278331,-0.6,0.56,0.54,1.6,-1.05,0.87,-3.25,-22.03,-0.69,4
3278343,-0.6,0.56,0.54,1.69,-1.1,0.5,-3.25,-22.03,-0.69,4
3278354,-0.6,0.56,0.54,1.7,-1.17,0.13,-3.25,-22.03,-0.69,4
3278365,-0.6,0.56,0.54,1.76,-1.21,-0.15,-3.24,-22.05,-0.49,4
3278376,-0.6,0.56,0.54,1.75,-1.18,-0.24,-3.24,-22.05,-0.49,4
3278388,-0.6,0.56,0.54,1.71,-1.09,-0.43,-3.24,-22.05,-0.49,4
3278400,-0.6,0.56,0.54,1.71,-1.11,-0.56,-3.24,-22.05,-0.49,4
3278411,-0.6,0.56,0.54,1.68,-1.15,-0.71,-3.31,-22.08,-0.43,4
3278423,-0.6,0.56,0.54,1.68,-1.16,-0.68,-3.31,-22.08,-0.43,4
3278435,-0.6,0.56,0.54,1.7,-1.06,-0.5,-3.31,-22.08,-0.43,4
3278448,-0.6,0.56,0.54,1.78,-1.17,-0.12,-3.31,-22.08,-0.43,4
3278459,-0.6,0.56,0.54,1.75,-1.18,0.04,-3.33,-22.1,-0.41,4
3278471,-0.6,0.56,0.54,1.7,-1.11,0.25,-3.33,-22.1,-0.41,4
3278483,-0.6,0.57,0.54,1.54,-0.9,0.87,-3.33,-22.1,-0.41,4
3278495,-0.6,0.56,0.54,1.63,-0.82,1.12,-3.33,-22.1,-0.41,4
3278505,-0.6,0.56,0.54,1.77,-0.79,1.2,-3.33,-22.1,-0.41,4
3278518,-0.6,0.56,0.54,1.79,-0.94,1.1,-3.23,-22.15,-0.42,4
3278528,-0.6,0.56,0.54,1.78,-0.96,1.0,-3.23,-22.15,-0.42,4
3278539,-0.6,0.56,0.54,1.81,-0.99,0.91,-3.23,-22.15,-0.42,4
3278551,-0.6,0.56,0.54,1.92,-1.02,0.52,-3.23,-22.15,-0.42,4
3278562,-0.6,0.56,0.54,1.94,-1.08,0.17,-3.18,-22.09,-0.23,4
3278574,-0.6,0.56,0.54,1.88,-1.14,-0.18,-3.18,-22.09,-0.23,4
3278586,-0.6,0.56,0.54,1.64,-1.02,-0.54,-3.18,-22.09,-0.23,4
3278598,-0.6,0.56,0.54,1.45,-0.92,-0.39,-3.18,-22.09,-0.23,4
3278611,-0.6,0.56,0.54,1.38,-0.72,0.11,-3.27,-22.08,-0.15,4
3278623,-0.6,0.56,0.54,1.44,-0.68,0.28,-3.27,-22.08,-0.15,4
3278636,-0.6,0.56,0.54,1.57,-0.72,0.56,-3.27,-22.08,-0.15,4
3278647,-0.6,0.56,0.54,1.66,-0.82,0.67,-3.27,-22.08,-0.15,4
3278658,-0.6,0.56,0.54,1.79,-0.89,0.64,-3.3,-22.18,-0.04,4
3278671,-0.6,0.56,0.54,2.04,-1.2,0.46,-3.3,-22.18,-0.04,4
3278683,-0.6,0.56,0.54,2.01,-1.2,0.41,-3.3,-22.18,-0.04,4
3278696,-0.6,0.56,0.54,2.06,-1.21,0.24,-3.3,-22.18,-0.04,4
3278708,-0.6,0.56,0.54,1.99,-1.25,0.09,-3.27,-22.18,-0.31,4
3278718,-0.6,0.56,0.54,1.76,-1.37,-0.13,-3.27,-22.18,-0.31,4
3278731,-0.6,0.56,0.54,1.28,-1.4,-0.25,-3.27,-22.18,-0.31,4
3278742,-0.6,0.56,0.54,1.26,-1.32,-0.17,-3.27,-22.18,-0.31,4
3278753,-0.6,0.56,0.54,1.25,-1.24,-0.04,-3.27,-22.18,-0.31,4
3278767,-0.6,0.56,0.54,1.25,-1.29,0.21,-3.25,-22.14,-0.21,4
3278777,-0.6,0.56,0.54,1.3,-1.25,0.29,-3.25,-22.14,-0.21,4
3278787,-0.6,0.56,0.54,1.4,-1.19,0.49,-3.25,-22.14,-0.21,4
3278800,-0.6,0.56,0.54,1.76,-0.9,0.9,-3.25,-22.14,-0.21,4
3278811,-0.6,0.56,0.54,1.8,-0.8,0.93,-3.15,-22.14,-0.15,4
3278823,-0.6,0.56,0.54,1.85,-0.81,0.79,-3.15,-22.14,-0.15,4
3278835,-0.6,0.56,0.54,1.78,-0.92,0.46,-3.15,-22.14,-0.15,4
3278847,-0.6,0.56,0.54,1.77,-0.98,0.52,-3.15,-22.14,-0.15,4
3278859,-0.6,0.56,0.54,1.8,-0.88,1.13,-3.17,-22.14,-0.12,4
3278870,-0.6,0.56,0.54,1.86,-0.78,1.32,-3.17,-22.14,-0.12,4
3278882,-0.6,0.56,0.54,1.73,-0.71,1.39,-3.17,-22.14,-0.12,4
3278895,-0.6,0.56,0.54,1.59,-0.89,1.05,-3.17,-22.14,-0.12,4
3278906,-0.6,0.56,0.54,1.64,-0.96,0.76,-3.24,-22.28,-0.17,4
3278919,-0.6,0.56,0.54,1.79,-0.96,0.2,-3.24,-22.28,-0.17,4
3278930,-0.6,0.56,0.54,1.84,-0.98,0.05,-3.24,-22.28,-0.17,4
3278942,-0.6,0.56,0.54,1.89,-1.05,0.08,-3.24,-22.28,-0.17,4
3278956,-0.6,0.56,0.54,1.67,-0.97,0.66,-3.31,-22.22,0.04,4
3278968,-0.6,0.56,0.54,1.61,-0.92,1.02,-3.31,-22.22,0.04,4
3278979,-0.6,0.56,0.54,1.67,-0.82,1.38,-3.31,-22.22,0.04,4
3278990,-0.6,0.56,0.54,1.69,-0.88,1.22,-3.31,-22.22,0.04,4
3279002,-0.6,0.56,0.54,1.79,-0.96,0.94,-3.31,-22.22,0.04,4
3279014,-0.6,0.56,0.54,1.8,-1.05,0.62,-3.34,-22.12,0.17,4
3279025,-0.6,0.56,0.54,1.72,-1.01,0.48,-3.34,-22.12,0.17,4
3279035,-0.6,0.56,0.54,1.75,-1.0,0.38,-3.34,-22.12,0.17,4
3279045,-0.6,0.56,0.54,1.82,-0.96,0.28,-3.34,-22.12,0.17,4
3279055,-0.6,0.56,0.54,1.78,-0.95,0.23,-3.34,-22.12,0.17,4
3279068,-0.6,0.56,0.54,1.55,-0.91,0.26,-3.36,-22.18,0.22,4
3279078,-0.6,0.56,0.54,1.46,-0.84,0.18,-3.36,-22.18,0.22,4
3279090,-0.6,0.56,0.54,1.4,-0.94,-0.23,-3.36,-22.18,0.22,4
3279102,-0.6,0.56,0.54,1.54,-0.99,-0.48,-3.36,-22.18,0.22,4
3279113,-0.6,0.56,0.54,1.63,-1.04,-0.53,-3.49,-22.24,0.23,4
3279126,-0.6,0.56,0.54,1.66,-1.09,-0.23,-3.49,-22.24,0.23,4
3279137,-0.6,0.56,0.54,1.66,-1.15,0.03,-3.49,-22.24,0.23,4
3279147,-0.6,0.56,0.54,1.61,-1.12,0.38,-3.49,-22.24,0.23,4
3279158,-0.6,0.56,0.54,1.61,-0.98,0.73,-3.52,-22.36,0.13,4
3279170,-0.6,0.56,0.54,2.05,-0.58,1.32,-3.52,-22.36,0.13,4
3279180,-0.6,0.56,0.54,2.22,-0.4,1.52,-3.52,-22.36,0.13,4
3279190,-0.6,0.56,0.54,2.24,-0.35,1.63,-3.52,-22.36,0.13,4
3279200,-0.61,0.56,0.54,2.19,-0.41,1.56,-3.52,-22.36,0.13,4
3279213,-0.61,0.56,0.54,1.98,-0.56,1.12,-3.4,-22.28,0.1,4
3279223,-0.6,0.55,0.54,1.81,-0.64,0.89,-3.4,-22.28,0.1,4
3279233,-0.6,0.55,0.54,1.74,-0.72,0.64,-3.4,-22.28,0.1,4
3279245,-0.6,0.55,0.54,1.66,-0.94,0.28,-3.4,-22.28,0.1,4
3279257,-0.6,0.56,0.54,1.6,-1.06,0.14,-3.35,-22.26,-0.07,4
3279269,-0.6,0.56,0.54,1.49,-1.21,-0.01,-3.35,-22.26,-0.07,4
3279281,-0.6,0.56,0.54,1.48,-1.21,-0.51,-3.35,-22.26,-0.07,4
3279293,-0.6,0.56,0.54,1.47,-1.17,-0.73,-3.35,-22.26,-0.07,4
3279308,-0.6,0.56,0.54,1.43,-1.15,-1.01,-3.44,-22.22,0.06,4
3279320,-0.6,0.56,0.54,1.35,-1.14,-0.97,-3.44,-22.22,0.06,4
3279331,-0.6,0.56,0.54,1.24,-1.05,-0.81,-3.44,-22.22,0.06,4
3279342,-0.6,0.56,0.54,1.22,-1.03,-0.55,-3.44,-22.22,0.06,4
3279354,-0.6,0.56,0.54,1.17,-0.98,-0.12,-3.44,-22.22,0.06,4
3279367,-0.6,0.57,0.54,1.25,-1.09,0.95,-3.44,-22.16,0.11,4
3279379,-0.6,0.57,0.54,1.36,-1.13,1.36,-3.44,-22.16,0.11,4
3279391,-0.6,0.56,0.54,1.62,-1.21,1.76,-3.44,-22.16,0.11,4
3279402,-0.6,0.56,0.54,1.73,-1.26,1.65,-3.44,-22.16,0.11,4
3279414,-0.6,0.55,0.54,1.82,-1.34,1.38,-3.41,-22.21,-0.12,4
3279427,-0.6,0.55,0.54,1.74,-1.44,0.57,-3.41,-22.21,-0.12,4
3279438,-0.61,0.55,0.54,1.77,-1.48,0.18,-3.41,-22.21,-0.12,4
3279450,-0.61,0.55,0.54,1.77,-1.47,-0.21,-3.41,-22.21,-0.12,4
3279463,-0.6,0.56,0.54,1.46,-1.43,-0.74,-3.36,-22.19,-0.22,4
3279475,-0.6,0.56,0.54,1.34,-1.39,-0.84,-3.36,-22.19,-0.22,4
3279486,-0.6,0.56,0.54,1.23,-1.2,-0.58,-3.36,-22.19,-0.22,4
3279498,-0.59,0.56,0.54,1.2,-1.18,-0.17,-3.36,-22.19,-0.22,4
3279509,-0.59,0.56,0.54,1.26,-1.11,0.31,-3.38,-22.2,-0.09,4
3279521,-0.6,0.56,0.54,1.49,-0.93,1.3,-3.38,-22.2,-0.09,4
3279533,-0.6,0.56,0.54,1.69,-0.83,1.67,-3.38,-22.2,-0.09,4
3279546,-0.6,0.56,0.54,2.05,-0.74,1.87,-3.38,-22.2,-0.09,4
3279558,-0.6,0.56,0.54,2.14,-0.81,1.63,-3.46,-22.12,0.06,4
3279570,-0.61,0.55,0.54,2.17,-0.88,1.23,-3.46,-22.12,0.06,4
3279582,-0.61,0.55,0.54,2.08,-0.91,0.13,-3.46,-22.12,0.06,4
3279593,-0.61,0.55,0.54,1.91,-0.94,-0.31,-3.46,-22.12,0.06,4
3279607,-0.6,0.55,0.54,1.55,-0.93,-0.82,-3.56,-22.1,0.08,4
3279619,-0.6,0.56,0.54,1.41,-0.95,-0.82,-3.56,-22.1,0.08,4
3279632,-0.6,0.56,0.54,1.24,-0.84,-0.37,-3.56,-22.1,0.08,4
3279643,-0.6,0.57,0.54,1.27,-0.79,0.11,-3.56,-22.1,0.08,4
3279656,-0.59,0.56,0.53,1.34,-0.75,0.56,-3.53,-22.04,0.07,4
3279668,-0.59,0.56,0.54,1.76,-0.85,1.28,-3.53,-22.04,0.07,4
3279678,-0.6,0.56,0.54,1.89,-0.89,1.51,-3.53,-22.04,0.07,4
3279688,-0.6,0.56,0.54,1.99,-0.95,1.76,-3.53,-22.04,0.07,4
3279698,-0.61,0.55,0.54,2.02,-0.97,1.81,-3.53,-22.04,0.07,4
3279711,-0.61,0.55,0.54,1.97,-1.1,1.39,-3.45,-21.94,-0.18,4
3279722,-0.61,0.55,0.54,1.91,-1.07,0.96,-3.45,-21.94,-0.18,4
3279733,-0.61,0.55,0.54,1.84,-0.97,0.39,-3.45,-21.94,-0.18,4
3279745,-0.6,0.55,0.54,1.66,-1.08,-0.63,-3.45,-21.94,-0.18,4
3279756,-0.6,0.56,0.54,1.56,-1.19,-0.95,-3.47,-21.99,-0.12,4
3279767,-0.6,0.56,0.54,1.42,-1.24,-1.08,-3.47,-21.99,-0.12,4
3279780,-0.6,0.56,0.54,1.39,-1.13,-0.76,-3.47,-21.99,-0.12,4
3279792,-0.6,0.56,0.54,1.49,-1.1,-0.41,-3.47,-21.99,-0.12,4
3279806,-0.6,0.56,0.54,1.65,-1.04,0.03,-3.47,-22.02,-0.0,4
3279817,-0.6,0.55,0.54,1.68,-1.05,0.11,-3.47,-22.02,-0.0,4
3279827,-0.6,0.56,0.54,1.58,-1.12,0.11,-3.47,-22.02,-0.0,4
3279838,-0.6,0.56,0.54,1.54,-1.13,0.36,-3.47,-22.02,-0.0,4
3279849,-0.6,0.56,0.54,1.63,-1.05,0.59,-3.47,-22.02,-0.0,4
3279860,-0.6,0.56,0.54,1.69,-0.98,0.86,-3.52,-21.94,-0.23,4
3279874,-0.6,0.56,0.54,1.73,-0.85,0.73,-3.52,-21.94,-0.23,4
3279885,-0.6,0.56,0.54,1.75,-0.95,0.33,-3.52,-21.94,-0.23,4
3279896,-0.6,0.56,0.54,1.81,-1.09,-0.04,-3.52,-21.94,-0.23,4
3279909,-0.6,0.56,0.54,1.9,-1.33,-0.2,-3.54,-21.87,-0.31,4
3279921,-0.6,0.55,0.54,1.9,-1.26,0.01,-3.54,-21.87,-0.31,4
3279932,-0.6,0.55,0.54,1.55,-1.08,0.32,-3.54,-21.87,-0.31,4
3279943,-0.61,0.56,0.54,1.48,-1.09,0.12,-3.54,-21.87,-0.31,4
3279956,-0.61,0.56,0.54,1.42,-1.15,-0.23,-3.57,-21.85,-0.42,4
3279968,-0.6,0.56,0.54,1.37,-1.24,-0.72,-3.57,-21.85,-0.42,4
3279979,-0.6,0.56,0.54,1.47,-1.12,-0.6,-3.57,-21.85,-0.42,4
3279991,-0.6,0.56,0.54,1.6,-1.03,-0.25,-3.57,-21.85,-0.42,4
3280003,-0.6,0.56,0.54,1.78,-0.95,0.22,-3.57,-21.85,-0.42,4
3280014,-0.6,0.56,0.54,1.93,-0.97,0.15,-3.52,-21.81,-0.36,4
3280027,-0.6,0.56,0.54,1.86,-1.07,-0.15,-3.52,-21.81,-0.36,4
3280038,-0.6,0.56,0.54,1.81,-1.05,-0.13,-3.52,-21.81,-0.36,4
3280050,-0.6,0.56,0.54,1.76,-1.02,0.06,-3.52,-21.81,-0.36,4
3280063,-0.6,0.56,0.54,1.58,-0.89,0.92,-3.61,-21.86,-0.3,4
3280075,-0.6,0.56,0.54,1.62,-0.89,1.19,-3.61,-21.86,-0.3,4
3280089,-0.6,0.56,0.54,1.8,-1.25,1.1,-3.61,-21.86,-0.3,4
3280100,-0.6,0.56,0.54,1.82,-1.44,0.83,-3.61,-21.86,-0.3,4
3280113,-0.6,0.56,0.54,1.89,-1.61,0.23,-3.58,-21.95,-0.5,4
3280124,-0.6,0.55,0.54,1.81,-1.55,0.01,-3.58,-21.95,-0.5,4
3280136,-0.6,0.55,0.54,1.68,-1.4,-0.18,-3.58,-21.95,-0.5,4
3280147,-0.6,0.55,0.54,1.5,-1.26,-0.43,-3.58,-21.95,-0.5,4
3280159,-0.6,0.56,0.54,1.44,-1.14,-0.52,-3.69,-21.97,-0.25,4
3280171,-0.6,0.56,0.54,1.46,-1.06,-0.57,-3.69,-21.97,-0.25,4
3280183,-0.6,0.56,0.54,1.57,-1.02,-0.4,-3.69,-21.97,-0.25,4
3280194,-0.6,0.56,0.54,1.56,-1.09,-0.18,-3.69,-21.97,-0.25,4
3280205,-0.6,0.56,0.54,1.55,-1.11,0.07,-3.7,-21.99,0.1,4
3280217,-0.6,0.56,0.54,1.63,-1.12,0.61,-3.7,-21.99,0.1,4
3280229,-0.6,0.56,0.54,1.67,-1.09,0.87,-3.7,-21.99,0.1,4
3280241,-0.6,0.56,0.54,1.97,-1.1,1.07,-3.7,-21.99,0.1,4
3280252,-0.6,0.56,0.54,2.12,-1.05,0.97,-3.7,-21.99,0.1,4
3280264,-0.61,0.56,0.54,2.08,-1.01,0.84,-3.69,-22.04,0.25,4
3280274,-0.6,0.56,0.54,1.96,-0.95,0.68,-3.69,-22.04,0.25,4
3280286,-0.6,0.55,0.54,1.89,-0.85,0.24,-3.69,-22.04,0.25,4
3280296,-0.6,0.55,0.54,1.74,-0.91,0.07,-3.69,-22.04,0.25,4
3280307,-0.6,0.55,0.54,1.6,-1.02,-0.15,-3.76,-22.05,0.17,4
3280321,-0.6,0.55,0.54,1.51,-1.23,-0.6,-3.76,-22.05,0.17,4
3280332,-0.6,0.56,0.54,1.42,-1.24,-0.56,-3.76,-22.05,0.17,4
3280346,-0.6,0.56,0.54,1.29,-1.14,0.21,-3.76,-22.05,0.17,4
3280357,-0.6,0.56,0.54,1.3,-1.05,0.69,-3.81,-22.1,-0.03,4
3280369,-0.6,0.56,0.54,1.42,-1.0,1.11,-3.81,-22.1,-0.03,4
3280381,-0.6,0.56,0.54,1.89,-0.72,-2.43,-3.81,-22.1,-0.03,4
3280393,-0.6,0.56,0.54,2.1,-0.72,-1.98,-3.81,-22.1,-0.03,4
3280405,-0.6,0.55,0.54,1.97,-0.84,-1.28,-3.74,-22.0,-0.08,4
3280416,-0.6,0.55,0.54,1.89,-0.85,-0.92,-3.74,-22.0,-0.08,4
3280428,-0.6,0.55,0.54,1.82,-0.83,-0.53,-3.74,-22.0,-0.08,4
3280439,-0.6,0.55,0.54,1.62,-0.79,0.26,-3.74,-22.0,-0.08,4
3280450,-0.6,0.55,0.54,1.53,-0.75,0.59,-3.74,-22.0,-0.08,4
3280461,-0.6,0.55,0.54,1.52,-0.75,0.85,-3.7,-21.92,-0.24,4
3280475,-0.6,0.56,0.54,1.48,-0.83,1.02,-3.7,-21.92,-0.24,4
3280487,-0.6,0.56,0.54,1.55,-0.93,0.97,-3.7,-21.92,-0.24,4
3280501,-0.6,0.56,0.54,1.73,-1.0,0.92,-3.7,-21.92,-0.24,4
3280512,-0.6,0.56,0.54,1.75,-1.03,0.92,-3.65,-22.03,-0.3,4
3280523,-0.6,0.55,0.54,1.88,-1.01,0.86,-3.65,-22.03,-0.3,4
3280536,-0.6,0.55,0.54,2.06,-1.04,0.47,-3.65,-22.03,-0.3,4
3280547,-0.61,0.55,0.54,2.01,-1.13,0.22,-3.65,-22.03,-0.3,4
3280560,-0.61,0.55,0.54,1.85,-1.17,-0.41,-3.64,-22.17,-0.32,4
3280571,-0.61,0.55,0.54,1.71,-1.17,-0.67,-3.64,-22.17,-0.32,4
3280583,-0.6,0.55,0.54,1.61,-1.17,-0.82,-3.64,-22.17,-0.32,4
3280595,-0.6,0.55,0.54,1.39,-1.17,-0.43,-3.64,-22.17,-0.32,4
3280606,-0.6,0.56,0.54,1.25,-1.17,-0.06,-3.62,-22.2,-0.21,4
3280618,-0.6,0.56,0.54,1.31,-1.2,0.25,-3.62,-22.2,-0.21,4
3280630,-0.6,0.56,0.54,1.56,-1.1,0.89,-3.62,-22.2,-0.21,4
3280642,-0.6,0.56,0.54,1.73,-1.05,1.19,-3.62,-22.2,-0.21,4
3280656,-0.6,0.56,0.54,2.01,-1.01,1.52,-3.67,-22.27,-0.1,4
3280667,-0.6,0.56,0.54,2.12,-0.98,1.47,-3.67,-22.27,-0.1,4
3280680,-0.6,0.56,0.54,2.37,-0.97,0.91,-3.67,-22.27,-0.1,4
3280691,-0.6,0.55,0.54,2.38,-1.03,0.68,-3.67,-22.27,-0.1,4
3280703,-0.6,0.55,0.54,2.22,-1.0,0.59,-3.67,-22.31,-0.06,4
3280715,-0.61,0.55,0.54,1.79,-0.92,0.27,-3.67,-22.31,-0.06,4
3280726,-0.61,0.55,0.54,1.58,-0.92,-0.07,-3.67,-22.31,-0.06,4
3280737,-0.61,0.55,0.54,1.4,-1.02,-0.46,-3.67,-22.31,-0.06,4
3280750,-0.6,0.56,0.54,1.42,-1.2,-1.05,-3.67,-22.31,-0.06,4
3280761,-0.6,0.56,0.54,1.37,-1.33,-1.05,-3.49,-22.3,0.04,4
3280774,-0.6,0.56,0.54,1.3,-1.43,-0.23,-3.49,-22.3,0.04,4
3280785,-0.6,0.56,0.53,1.43,-1.46,0.41,-3.49,-22.3,0.04,4
3280797,-0.6,0.56,0.53,1.61,-1.42,1.02,-3.49,-22.3,0.04,4
3280810,-0.6,0.55,0.54,2.03,-1.4,1.87,-3.43,-22.31,-0.05,4
3280821,-0.61,0.55,0.54,2.26,-1.32,1.85,-3.43,-22.31,-0.05,4
3280832,-0.61,0.55,0.54,2.34,-1.27,1.45,-3.43,-22.31,-0.05,4
3280844,-0.61,0.55,0.54,1.93,-1.39,0.25,-3.43,-22.31,-0.05,4
3280855,-0.61,0.55,0.54,1.61,-1.44,-0.26,-3.49,-22.47,-0.19,4
3280867,-0.6,0.55,0.54,1.41,-1.39,-0.62,-3.49,-22.47,-0.19,4
3280879,-0.6,0.55,0.54,1.26,-1.23,-0.55,-3.49,-22.47,-0.19,4
3280891,-0.6,0.56,0.54,1.31,-1.16,-0.16,-3.49,-22.47,-0.19,4
3280906,-0.6,0.56,0.54,1.52,-1.04,0.4,-3.58,-22.38,-0.25,4
3280918,-0.6,0.56,0.54,1.64,-1.0,0.5,-3.58,-22.38,-0.25,4
3280930,-0.6,0.56,0.54,1.74,-0.95,0.74,-3.58,-22.38,-0.25,4
3280942,-0.6,0.56,0.54,1.77,-1.01,0.87,-3.58,-22.38,-0.25,4
3280953,-0.6,0.55,0.54,1.86,-1.09,1.07,-3.6,-22.24,-0.2,4
3280964,-0.61,0.55,0.54,1.96,-1.05,1.41,-3.6,-22.24,-0.2,4
3280976,-0.61,0.55,0.54,1.99,-0.92,1.78,-3.6,-22.24,-0.2,4
3280990,-0.61,0.55,0.54,2.08,-0.79,1.52,-3.6,-22.24,-0.2,4
3281001,-0.61,0.55,0.54,2.15,-0.87,1.0,-3.6,-22.24,-0.2,4
3281013,-0.6,0.55,0.54,2.08,-0.99,0.45,-3.63,-22.09,0.04,4
3281025,-0.6,0.55,0.54,1.7,-1.17,0.05,-3.63,-22.09,0.04,4
3281035,-0.61,0.55,0.54,1.58,-1.2,0.15,-3.63,-22.09,0.04,4
3281046,-0.61,0.55,0.54,1.58,-1.2,0.21,-3.63,-22.09,0.04,4
3281059,-0.61,0.55,0.54,1.62,-1.27,0.01,-3.55,-22.1,0.12,4
3281071,-0.6,0.55,0.54,1.6,-1.3,-0.15,-3.55,-22.1,0.12,4
3281085,-0.61,0.55,0.54,1.53,-1.31,-0.19,-3.55,-22.1,0.12,4
3281097,-0.61,0.56,0.54,1.54,-1.35,-0.09,-3.55,-22.1,0.12,4
3281109,-0.61,0.55,0.54,1.63,-1.24,0.07,-3.56,-22.04,0.02,4
3281120,-0.6,0.55,0.54,1.81,-1.16,0.15,-3.56,-22.04,0.02,4
3281132,-0.6,0.55,0.54,1.89,-1.09,0.33,-3.56,-22.04,0.02,4
3281145,-0.61,0.55,0.54,1.81,-1.1,0.61,-3.56,-22.04,0.02,4
3281156,-0.61,0.55,0.54,1.8,-1.06,0.6,-3.57,-22.02,0.03,4
3281169,-0.61,0.55,0.54,1.9,-1.03,0.19,-3.57,-22.02,0.03,4
3281180,-0.61,0.55,0.54,1.76,-1.06,-0.0,-3.57,-22.02,0.03,4
3281192,-0.61,0.55,0.54,1.53,-1.16,-0.11,-3.57,-22.02,0.03,4
3281204,-0.61,0.55,0.54,1.39,-1.23,-0.25,-3.6,-21.94,-0.22,4
3281216,-0.61,0.55,0.54,1.49,-1.2,-0.41,-3.6,-21.94,-0.22,4
3281229,-0.61,0.55,0.54,1.58,-1.04,-0.49,-3.6,-21.94,-0.22,4
3281240,-0.6,0.55,0.54,1.53,-0.99,-0.3,-3.6,-21.94,-0.22,4
3281251,-0.6,0.55,0.54,1.5,-0.93,0.05,-3.6,-21.94,-0.22,4
3281262,-0.6,0.55,0.54,1.56,-0.82,0.33,-3.53,-21.94,-0.37,4
3281274,-0.61,0.55,0.54,1.64,-0.78,0.57,-3.53,-21.94,-0.37,4
3281286,-0.61,0.55,0.54,1.68,-0.83,0.56,-3.53,-21.94,-0.37,4
3281300,-0.61,0.55,0.54,1.89,-0.98,0.53,-3.53,-21.94,-0.37,4
3281311,-0.61,0.55,0.54,1.88,-1.03,0.46,-3.56,-21.93,-0.26,4
3281325,-0.61,0.55,0.54,1.81,-1.09,-0.01,-3.56,-21.93,-0.26,4
3281337,-0.61,0.55,0.54,1.73,-1.13,-0.29,-3.56,-21.93,-0.26,4
3281350,-0.61,0.55,0.54,1.4,-1.17,-0.81,-3.56,-21.93,-0.26,4
3281362,-0.6,0.55,0.54,1.24,-1.14,-0.94,-3.56,-21.97,-0.31,4
3281375,-0.6,0.55,0.54,0.99,-1.04,-1.0,-3.56,-21.97,-0.31,4
3281386,-0.6,0.55,0.54,1.0,-1.0,-0.85,-3.56,-21.97,-0.31,4
3281398,-0.6,0.56,0.54,1.07,-0.94,-0.54,-3.56,-21.97,-0.31,4
3281411,-0.6,0.56,0.54,1.01,-0.72,0.4,-3.62,-22.03,-0.25,4
3281423,-0.6,0.56,0.54,1.11,-0.63,0.72,-3.62,-22.03,-0.25,4
3281437,-0.6,0.55,0.54,1.5,-0.61,0.81,-3.62,-22.03,-0.25,4
3281448,-0.6,0.55,0.54,1.7,-0.68,0.66,-3.62,-22.03,-0.25,4
3281461,-0.6,0.55,0.54,1.86,-0.99,0.51,-3.64,-22.1,-0.16,4
3281472,-0.61,0.55,0.54,1.72,-1.01,0.64,-3.64,-22.1,-0.16,4
3281484,-0.61,0.55,0.54,1.62,-1.02,0.73,-3.64,-22.1,-0.16,4
3281497,-0.61,0.55,0.54,1.56,-1.13,0.26,-3.64,-22.1,-0.16,4
3281509,-0.61,0.55,0.54,1.41,-1.23,-0.27,-3.87,-22.2,-0.14,4
3281523,-0.61,0.55,0.54,1.21,-1.51,-1.24,-3.87,-22.2,-0.14,4
3281534,-0.6,0.56,0.54,1.17,-1.54,-1.41,-3.87,-22.2,-0.14,4
3281545,-0.6,0.56,0.54,1.18,-1.46,-1.3,-3.87,-22.2,-0.14,4
3281558,-0.6,0.56,0.54,1.33,-1.23,-0.33,-3.86,-22.22,-0.1,4
3281570,-0.6,0.56,0.54,1.46,-1.08,0.18,-3.86,-22.22,-0.1,4
3281581,-0.6,0.56,0.54,1.76,-0.83,0.54,-3.86,-22.22,-0.1,4
3281592,-0.61,0.55,0.54,2.07,-0.79,0.35,-3.86,-22.22,-0.1,4
3281603,-0.61,0.55,0.54,2.13,-0.79,0.21,-3.72,-22.23,-0.19,4
3281617,-0.6,0.55,0.54,1.87,-0.85,0.2,-3.72,-22.23,-0.19,4
3281629,-0.6,0.55,0.54,1.77,-0.83,0.33,-3.72,-22.23,-0.19,4
3281643,-0.6,0.55,0.54,1.76,-0.83,0.62,-3.72,-22.23,-0.19,4
3281654,-0.6,0.55,0.54,1.8,-0.82,0.7,-3.68,-22.1,-0.21,4
3281667,-0.6,0.55,0.54,1.76,-0.84,0.72,-3.68,-22.1,-0.21,4
3281678,-0.6,0.55,0.54,1.78,-0.9,0.5,-3.68,-22.1,-0.21,4
3281690,-0.6,0.55,0.54,1.87,-0.93,0.1,-3.68,-22.1,-0.21,4
3281702,-0.61,0.55,0.54,1.95,-0.99,-0.76,-3.68,-22.07,-0.13,4
3281714,-0.61,0.55,0.54,1.9,-0.89,-1.04,-3.68,-22.07,-0.13,4
3281727,-0.61,0.55,0.54,1.77,-0.58,-1.01,-3.68,-22.07,-0.13,4
3281738,-0.6,0.56,0.54,1.71,-0.46,-0.72,-3.68,-22.07,-0.13,4
3281750,-0.6,0.55,0.54,1.63,-0.31,-0.33,-3.68,-22.07,-0.13,4
3281763,-0.6,0.56,0.54,2.4,0.04,0.53,-3.61,-22.02,-0.01,4
3281774,-0.6,0.55,0.54,2.5,0.1,0.88,-3.61,-22.02,-0.01,4
3281785,-0.6,0.55,0.54,2.45,0.04,1.28,-3.61,-22.02,-0.01,4
3281798,-0.6,0.55,0.54,2.7,-0.02,1.7,-3.61,-22.02,-0.01,4
3281809,-0.61,0.55,0.54,2.8,-0.13,1.58,-3.63,-22.0,-0.05,4
3281821,-0.61,0.55,0.54,2.67,-0.38,0.73,-3.63,-22.0,-0.05,4
3281833,-0.61,0.55,0.54,2.55,-0.51,0.32,-3.63,-22.0,-0.05,4
3281844,-0.61,0.55,0.54,2.47,-0.56,-0.09,-3.63,-22.0,-0.05,4
3281858,-0.61,0.55,0.54,2.07,-0.49,-0.59,-3.69,-21.89,-0.24,4
3281869,-0.6,0.55,0.54,1.96,-0.47,-0.73,-3.69,-21.89,-0.24,4
3281880,-0.6,0.55,0.54,1.81,-0.4,-0.76,-3.69,-21.89,-0.24,4
3281892,-0.6,0.55,0.54,2.07,-0.35,-0.63,-3.69,-21.89,-0.24,4
3281903,-0.6,0.55,0.54,2.26,-0.34,-0.4,-3.61,-21.83,-0.4,4
3281916,-0.6,0.55,0.54,2.37,-0.21,0.41,-3.61,-21.83,-0.4,4
3281927,-0.6,0.55,0.54,2.51,-0.15,0.87,-3.61,-21.83,-0.4,4
3281938,-0.6,0.55,0.54,2.7,-0.15,1.19,-3.61,-21.83,-0.4,4
3281953,-0.6,0.55,0.55,2.81,-0.33,1.32,-3.59,-21.82,-0.46,4
3281965,-0.6,0.55,0.55,2.69,-0.5,1.18,-3.59,-21.82,-0.46,4
3281977,-0.61,0.55,0.55,2.49,-0.53,0.71,-3.59,-21.82,-0.46,4
3281989,-0.61,0.55,0.55,2.44,-0.48,0.41,-3.59,-21.82,-0.46,4
3282003,-0.61,0.55,0.55,2.27,-0.55,-0.11,-3.58,-21.83,-0.37,4
3282015,-0.6,0.55,0.55,2.12,-0.6,-0.16,-3.58,-21.83,-0.37,4
3282029,-0.6,0.55,0.54,1.88,-0.54,0.08,-3.58,-21.83,-0.37,4
3282041,-0.6,0.55,0.54,2.01,-0.5,0.25,-3.58,-21.83,-0.37,4
3282052,-0.6,0.55,0.54,2.2,-0.43,0.36,-3.65,-21.91,-0.56,4
3282064,-0.6,0.55,0.54,2.77,-0.29,0.41,-3.65,-21.91,-0.56,4
3282075,-0.6,0.55,0.55,3.03,-0.14,0.46,-3.65,-21.91,-0.56,4
3282086,-0.6,0.55,0.55,3.17,-0.05,0.66,-3.65,-21.91,-0.56,4
3282098,-0.6,0.55,0.55,3.28,0.16,1.04,-3.65,-21.91,-0.56,4
3282109,-0.61,0.55,0.55,3.2,0.22,1.03,-3.65,-22.05,-0.63,4
3282120,-0.6,0.54,0.55,3.21,0.31,0.8,-3.65,-22.05,-0.63,4
3282132,-0.6,0.54,0.55,3.32,0.37,0.21,-3.65,-22.05,-0.63,4
3282144,-0.6,0.55,0.55,3.26,0.34,0.05,-3.65,-22.05,-0.63,4
3282156,-0.6,0.55,0.55,3.15,0.16,-0.17,-3.74,-22.02,-0.76,4
3282168,-0.6,0.55,0.55,3.2,-0.0,-0.17,-3.74,-22.02,-0.76,4
3282179,-0.6,0.55,0.55,3.21,-0.16,-0.18,-3.74,-22.02,-0.76,4
3282191,-0.6,0.55,0.55,2.97,-0.68,-0.37,-3.74,-22.02,-0.76,4
3282203,-0.6,0.54,0.55,2.88,-0.88,-0.53,-3.68,-22.04,-0.78,4
3282215,-0.6,0.54,0.55,2.92,-0.93,-0.66,-3.68,-22.04,-0.78,4
3282227,-0.6,0.55,0.55,3.17,-0.43,-0.61,-3.68,-22.04,-0.78,4
3282239,-0.6,0.55,0.55,3.43,-0.05,-0.3,-3.68,-22.04,-0.78,4
3282253,-0.6,0.55,0.55,4.04,0.72,-0.0,-3.67,-22.09,-0.76,4
3282265,-0.6,0.54,0.55,4.39,0.88,-0.23,-3.67,-22.09,-0.76,4
3282279,-0.6,0.54,0.55,4.76,1.13,-0.55,-3.67,-22.09,-0.76,4
3282291,-0.6,0.55,0.55,5.3,1.58,-0.59,-3.67,-22.09,-0.76,4
3282302,-0.6,0.55,0.55,6.59,2.47,-0.52,-3.63,-22.18,-1.03,4
3282313,-0.6,0.55,0.56,8.49,3.65,-0.27,-3.63,-22.18,-1.03,4
3282325,-0.6,0.55,0.56,9.66,4.7,0.48,-3.63,-22.18,-1.03,4
3282338,-0.58,0.54,0.56,10.52,5.64,1.86,-3.63,-22.18,-1.03,4
3282349,-0.59,0.54,0.56,10.81,5.62,2.3,-3.63,-22.18,-1.03,4
3282360,-0.59,0.53,0.57,10.32,4.97,2.61,-3.64,-22.06,-1.05,4
3282371,-0.59,0.53,0.57,8.58,3.44,2.19,-3.64,-22.06,-1.05,4
3282382,-0.59,0.53,0.57,7.77,3.0,1.55,-3.64,-22.06,-1.05,4
3282393,-0.59,0.53,0.58,6.97,2.77,0.88,-3.64,-22.06,-1.05,4
3282406,-0.59,0.53,0.58,5.39,2.36,0.4,-3.57,-22.0,-1.31,4
3282417,-0.59,0.53,0.58,4.63,2.14,0.58,-3.57,-22.0,-1.31,4
3282428,-0.59,0.53,0.58,4.0,1.96,0.76,-3.57,-22.0,-1.31,4
3282440,-0.59,0.53,0.58,2.86,1.61,1.29,-3.57,-22.0,-1.31,4
3282452,-0.59,0.53,0.58,2.16,1.54,1.73,-3.47,-21.97,-1.51,4
3282463,-0.59,0.53,0.57,1.85,1.32,2.1,-3.47,-21.97,-1.51,4
3282475,-0.59,0.53,0.57,2.38,0.76,1.67,-3.47,-21.97,-1.51,4
3282487,-0.59,0.53,0.57,2.51,0.38,1.13,-3.47,-21.97,-1.51,4
3282501,-0.6,0.53,0.57,2.82,-0.39,-0.22,-3.59,-21.9,-1.73,4
3282513,-0.6,0.53,0.57,3.25,-0.44,-0.75,-3.59,-21.9,-1.73,4
3282526,-0.59,0.53,0.58,3.47,0.21,-1.13,-3.59,-21.9,-1.73,4
3282537,-0.59,0.53,0.58,3.7,0.71,-0.93,-3.59,-21.9,-1.73,4
3282548,-0.59,0.53,0.58,4.0,1.24,-0.63,-3.59,-21.9,-1.73,4
3282561,-0.59,0.53,0.58,4.5,2.3,-0.24,-3.6,-22.0,-1.61,4
3282573,-0.59,0.53,0.58,4.91,2.59,-0.39,-3.6,-22.0,-1.61,4
3282587,-0.59,0.53,0.58,5.14,2.4,-0.78,-3.6,-22.0,-1.61,4
3282598,-0.58,0.53,0.58,4.9,2.06,-0.58,-3.6,-22.0,-1.61,4
3282609,-0.58,0.53,0.58,4.67,1.59,-0.22,-3.63,-21.96,-1.73,4
3282620,-0.58,0.53,0.58,4.13,0.67,0.85,-3.63,-21.96,-1.73,4
3282631,-0.58,0.53,0.58,3.84,0.24,1.36,-3.63,-21.96,-1.73,4
3282642,-0.58,0.53,0.58,3.74,-0.11,1.49,-3.63,-21.96,-1.73,4
3282655,-0.59,0.53,0.58,4.45,-0.04,0.53,-3.51,-21.98,-1.88,4
3282666,-0.59,0.52,0.59,4.72,0.21,-0.15,-3.51,-21.98,-1.88,4
3282677,-0.59,0.52,0.59,4.83,0.58,-0.72,-3.51,-21.98,-1.88,4
3282689,-0.59,0.51,0.59,4.68,1.07,-1.25,-3.51,-21.98,-1.88,4
3282701,-0.58,0.52,0.59,4.43,1.05,-1.26,-3.56,-21.9,-2.01,4
3282712,-0.58,0.52,0.59,4.14,0.86,-1.06,-3.56,-21.9,-2.01,4
3282725,-0.58,0.52,0.59,4.05,0.66,-0.63,-3.56,-21.9,-2.01,4
3282736,-0.58,0.53,0.59,4.56,0.7,-0.85,-3.56,-21.9,-2.01,4
3282751,-0.58,0.52,0.59,5.23,0.71,-1.43,-3.58,-21.76,-2.3,4
3282762,-0.58,0.52,0.59,5.07,0.57,-1.54,-3.58,-21.76,-2.3,4
3282774,-0.58,0.52,0.59,4.38,0.18,-0.91,-3.58,-21.76,-2.3,4
3282786,-0.58,0.52,0.59,4.03,0.02,-0.16,-3.58,-21.76,-2.3,4
3282797,-0.58,0.52,0.59,3.71,-0.05,0.52,-3.58,-21.76,-2.3,4
3282810,-0.59,0.52,0.6,3.65,-0.11,0.73,-3.66,-21.78,-2.37,4
3282822,-0.58,0.52,0.6,3.57,-0.04,0.3,-3.66,-21.78,-2.37,4
3282833,-0.58,0.52,0.6,3.28,0.06,-0.12,-3.66,-21.78,-2.37,4
3282845,-0.58,0.52,0.6,3.01,0.24,-0.75,-3.66,-21.78,-2.37,4
3282856,-0.58,0.52,0.6,3.04,0.28,-0.97,-3.59,-21.67,-2.65,4
3282868,-0.58,0.52,0.6,3.02,0.23,-1.0,-3.59,-21.67,-2.65,4
3282880,-0.58,0.52,0.6,2.8,0.02,-0.64,-3.59,-21.67,-2.65,4
3282892,-0.58,0.52,0.6,2.67,-0.12,-0.3,-3.59,-21.67,-2.65,4
3282905,-0.58,0.52,0.59,2.62,-0.51,0.01,-3.48,-21.65,-2.77,4
3282917,-0.58,0.52,0.6,2.79,-0.68,-0.3,-3.48,-21.65,-2.77,4
3282931,-0.58,0.51,0.6,3.38,-0.65,-1.51,-3.48,-21.65,-2.77,4
3282943,-0.58,0.52,0.6,3.47,-0.63,-1.88,-3.48,-21.65,-2.77,4
3282955,-0.58,0.52,0.6,3.39,-0.5,-2.01,-3.42,-21.68,-2.78,4
3282966,-0.59,0.52,0.59,3.46,-0.33,-2.18,-3.42,-21.68,-2.78,4
3282978,-0.59,0.52,0.59,3.84,0.16,-2.93,-3.42,-21.68,-2.78,4
3282989,-0.58,0.51,0.6,5.1,1.6,-5.3,-3.42,-21.68,-2.78,4
3283001,-0.57,0.51,0.6,4.95,1.99,-5.83,-3.4,-21.73,-2.98,4
3283013,-0.57,0.52,0.61,4.41,2.01,-5.62,-3.4,-21.73,-2.98,4
3283025,-0.56,0.53,0.6,3.18,2.01,-3.77,-3.4,-21.73,-2.98,4
3283037,-0.56,0.53,0.6,2.8,1.95,-2.64,-3.4,-21.73,-2.98,4
3283050,-0.56,0.53,0.6,3.14,1.42,-1.67,-3.28,-21.82,-3.19,4
3283061,-0.56,0.53,0.6,3.19,1.02,-1.76,-3.28,-21.82,-3.19,4
3283072,-0.56,0.53,0.6,2.9,0.6,-1.83,-3.28,-21.82,-3.19,4
3283084,-0.56,0.53,0.6,2.27,-0.21,-0.81,-3.28,-21.82,-3.19,4
3283095,-0.56,0.52,0.6,2.05,-0.41,0.15,-3.28,-21.82,-3.19,4
3283106,-0.56,0.52,0.6,2.03,-0.52,1.04,-3.33,-21.7,-3.17,4
3283120,-0.57,0.52,0.6,2.32,-0.68,1.86,-3.33,-21.7,-3.17,4
3283131,-0.57,0.52,0.61,2.36,-0.74,1.82,-3.33,-21.7,-3.17,4
3283145,-0.58,0.52,0.61,2.43,-0.59,1.26,-3.33,-21.7,-3.17,4
3283156,-0.58,0.52,0.61,2.62,-0.45,0.63,-3.19,-21.66,-3.35,4
3283167,-0.57,0.52,0.61,2.73,-0.35,-0.02,-3.19,-21.66,-3.35,4
3283181,-0.56,0.52,0.61,2.65,-0.46,-0.8,-3.19,-21.66,-3.35,4
3283192,-0.56,0.52,0.61,2.52,-0.58,-0.74,-3.19,-21.66,-3.35,4
3283206,-0.57,0.52,0.61,2.26,-0.67,-0.24,-3.2,-21.67,-3.46,4
3283218,-0.57,0.52,0.61,2.41,-0.62,-0.46,-3.2,-21.67,-3.46,4
3283232,-0.58,0.51,0.61,2.57,-0.36,-1.88,-3.2,-21.67,-3.46,4
3283244,-0.58,0.51,0.61,2.46,-0.35,-2.71,-3.2,-21.67,-3.46,4
3283257,-0.57,0.52,0.61,1.86,-0.25,-3.62,-3.21,-21.59,-3.58,4
3283269,-0.56,0.52,0.61,1.68,-0.13,-3.5,-3.21,-21.59,-3.58,4
3283283,-0.55,0.53,0.61,1.27,-0.1,-2.42,-3.21,-21.59,-3.58,4
3283295,-0.55,0.53,0.6,0.96,-0.18,-1.12,-3.21,-21.59,-3.58,4
3283307,-0.56,0.53,0.6,1.56,-0.15,1.2,-2.98,-21.64,-3.68,4
3283318,-0.56,0.53,0.61,1.88,-0.07,1.54,-2.98,-21.64,-3.68,4
3283330,-0.57,0.52,0.61,1.91,-0.19,1.43,-2.98,-21.64,-3.68,4
3283344,-0.57,0.52,0.61,2.25,-0.65,-0.3,-2.98,-21.64,-3.68,4
3283355,-0.57,0.52,0.61,2.49,-0.69,-1.26,-2.85,-21.68,-3.81,4
3283369,-0.57,0.52,0.61,2.11,-0.46,-1.74,-2.85,-21.68,-3.81,4
3283381,-0.56,0.52,0.61,1.82,-0.32,-1.44,-2.85,-21.68,-3.81,4
3283394,-0.56,0.52,0.61,1.35,-0.08,-0.45,-2.85,-21.68,-3.81,4
3283406,-0.57,0.52,0.61,1.32,0.08,-0.34,-2.8,-21.79,-3.77,4
3283417,-0.57,0.52,0.61,1.55,0.28,-0.82,-2.8,-21.79,-3.77,4
3283429,-0.57,0.52,0.61,2.45,0.57,-3.57,-2.8,-21.79,-3.77,4
3283441,-0.57,0.52,0.61,2.59,0.55,-5.11,-2.8,-21.79,-3.77,4
3283454,-0.56,0.52,0.61,2.68,0.98,-6.23,-2.73,-21.75,-3.59,4
3283465,-0.55,0.53,0.61,2.84,1.49,-5.49,-2.73,-21.75,-3.59,4
3283476,-0.55,0.54,0.61,2.72,1.98,-4.29,-2.73,-21.75,-3.59,4
3283488,-0.54,0.54,0.61,2.95,2.9,-1.12,-2.73,-21.75,-3.59,4
3283500,-0.54,0.54,0.61,2.73,2.88,0.94,-2.66,-21.75,-3.53,4
3283511,-0.54,0.53,0.61,2.6,2.62,2.61,-2.66,-21.75,-3.53,4
3283524,-0.55,0.52,0.61,2.9,1.68,3.5,-2.66,-21.75,-3.53,4
3283534,-0.55,0.52,0.61,2.79,0.96,3.13,-2.66,-21.75,-3.53,4
3283545,-0.56,0.52,0.62,2.59,0.29,2.68,-2.66,-21.75,-3.53,4
3283559,-0.55,0.52,0.62,2.35,-0.48,2.7,-2.59,-21.72,-3.49,4
3283570,-0.55,0.52,0.62,2.09,-0.48,3.4,-2.59,-21.72,-3.49,4
3283581,-0.56,0.53,0.62,1.82,-0.38,4.18,-2.59,-21.72,-3.49,4
3283593,-0.56,0.53,0.61,1.87,-0.12,4.71,-2.59,-21.72,-3.49,4
3283604,-0.56,0.52,0.62,1.9,-0.04,4.73,-2.68,-21.8,-3.71,4
3283618,-0.56,0.52,0.62,1.85,0.05,4.35,-2.68,-21.8,-3.71,4
3283629,-0.56,0.51,0.62,2.23,0.08,3.49,-2.68,-21.8,-3.71,4
3283642,-0.56,0.51,0.62,2.4,-0.15,1.15,-2.68,-21.8,-3.71,4
3283654,-0.56,0.51,0.62,2.22,-0.44,0.31,-2.7,-21.7,-4.13,4
3283666,-0.56,0.52,0.62,1.97,-0.56,-0.11,-2.7,-21.7,-4.13,4
3283678,-0.55,0.52,0.61,1.44,-0.58,0.68,-2.7,-21.7,-4.13,4
3283690,-0.55,0.52,0.61,1.3,-0.63,1.6,-2.7,-21.7,-4.13,4
3283702,-0.55,0.52,0.61,1.38,-0.64,3.5,-2.69,-21.71,-4.13,4
3283713,-0.55,0.53,0.61,1.44,-0.66,4.6,-2.69,-21.71,-4.13,4
3283725,-0.55,0.53,0.61,1.45,-0.72,5.97,-2.69,-21.71,-4.13,4
3283738,-0.56,0.52,0.61,2.27,-0.69,7.51,-2.69,-21.71,-4.13,4
3283750,-0.57,0.52,0.61,2.95,-0.69,6.84,-2.65,-21.71,-4.21,4
3283762,-0.57,0.51,0.62,3.35,-0.97,4.82,-2.65,-21.71,-4.21,4
3283773,-0.57,0.51,0.62,3.19,-0.92,3.91,-2.65,-21.71,-4.21,4
3283784,-0.56,0.5,0.62,3.34,-0.78,3.13,-2.65,-21.71,-4.21,4
3283796,-0.56,0.5,0.62,3.26,-0.37,2.33,-2.65,-21.71,-4.21,4
3283808,-0.57,0.5,0.62,2.78,-0.29,2.14,-2.69,-21.72,-3.97,4
3283819,-0.57,0.5,0.62,2.45,-0.25,1.8,-2.69,-21.72,-3.97,4
3283832,-0.57,0.51,0.62,2.72,0.01,0.6,-2.69,-21.72,-3.97,4
3283843,-0.57,0.51,0.62,3.17,0.29,-0.04,-2.69,-21.72,-3.97,4
3283854,-0.56,0.52,0.62,3.87,0.67,-0.47,-2.7,-21.6,-3.86,4
3283865,-0.56,0.52,0.62,5.48,1.72,0.34,-2.7,-21.6,-3.86,4
3283876,-0.55,0.52,0.62,5.8,2.02,1.87,-2.7,-21.6,-3.86,4
3283888,-0.55,0.52,0.62,5.86,2.1,3.46,-2.7,-21.6,-3.86,4
3283899,-0.56,0.52,0.62,5.94,2.15,4.68,-2.75,-21.46,-4.1,4
3283910,-0.56,0.51,0.62,6.09,2.04,5.19,-2.75,-21.46,-4.1,4
3283922,-0.56,0.51,0.62,6.37,1.98,4.68,-2.75,-21.46,-4.1,4
3283932,-0.56,0.5,0.63,6.61,1.85,4.4,-2.75,-21.46,-4.1,4
3283944,-0.56,0.5,0.63,6.27,1.67,5.03,-2.75,-21.46,-4.1,4
3283955,-0.56,0.5,0.63,5.83,1.64,5.75,-2.85,-21.35,-4.25,4
3283967,-0.56,0.5,0.63,5.3,1.52,6.22,-2.85,-21.35,-4.25,4
3283979,-0.56,0.49,0.63,4.46,1.14,4.91,-2.85,-21.35,-4.25,4
3283991,-0.57,0.49,0.63,4.18,1.02,3.67,-2.85,-21.35,-4.25,4
3284003,-0.57,0.49,0.63,3.79,1.17,1.99,-2.95,-21.37,-4.47,4
3284014,-0.56,0.49,0.63,3.8,1.49,1.87,-2.95,-21.37,-4.47,4
3284025,-0.56,0.49,0.63,3.92,1.86,2.19,-2.95,-21.37,-4.47,4
3284036,-0.56,0.49,0.64,3.96,2.12,2.71,-2.95,-21.37,-4.47,4
3284049,-0.56,0.49,0.63,3.09,2.51,3.97,-3.07,-21.28,-4.52,4
3284061,-0.55,0.5,0.63,2.66,2.32,4.54,-3.07,-21.28,-4.52,4
3284073,-0.56,0.5,0.63,2.69,1.96,4.03,-3.07,-21.28,-4.52,4
3284084,-0.56,0.5,0.63,2.79,1.54,3.41,-3.07,-21.28,-4.52,4
3284095,-0.56,0.5,0.63,2.93,1.07,2.68,-3.07,-21.28,-4.52,4
3284108,-0.56,0.5,0.63,2.9,0.1,1.98,-3.19,-21.19,-4.54,4
3284119,-0.56,0.5,0.63,2.86,-0.2,2.14,-3.19,-21.19,-4.54,4
3284133,-0.57,0.5,0.64,3.53,-0.16,2.52,-3.19,-21.19,-4.54,4
3284144,-0.57,0.49,0.64,4.12,0.15,2.23,-3.19,-21.19,-4.54,4
3284155,-0.57,0.49,0.64,4.6,0.4,1.74,-3.2,-21.15,-4.77,4
3284166,-0.57,0.49,0.64,5.02,0.63,0.9,-3.2,-21.15,-4.77,4
3284177,-0.56,0.48,0.64,4.75,0.64,0.89,-3.2,-21.15,-4.77,4
3284188,-0.55,0.49,0.64,4.35,0.55,1.26,-3.2,-21.15,-4.77,4
3284201,-0.56,0.49,0.64,3.69,0.3,2.46,-3.3,-21.18,-4.66,4
3284213,-0.56,0.49,0.64,3.47,0.19,2.73,-3.3,-21.18,-4.66,4
3284226,-0.56,0.49,0.64,2.96,-0.33,1.84,-3.3,-21.18,-4.66,4
3284237,-0.56,0.48,0.64,2.7,-0.74,1.12,-3.3,-21.18,-4.66,4
3284248,-0.56,0.48,0.64,2.44,-1.08,0.61,-3.39,-21.03,-4.61,4
3284259,-0.56,0.48,0.64,2.24,-1.21,0.47,-3.39,-21.03,-4.61,4
3284271,-0.56,0.49,0.64,2.02,-1.05,0.58,-3.39,-21.03,-4.61,4
3284282,-0.56,0.49,0.64,1.8,-1.06,0.57,-3.39,-21.03,-4.61,4
3284296,-0.56,0.48,0.64,1.74,-1.11,-0.09,-3.39,-21.03,-4.61,4
3284307,-0.56,0.48,0.64,1.91,-0.97,-0.61,-3.43,-20.99,-4.61,4
3284318,-0.56,0.48,0.64,1.88,-0.85,-1.03,-3.43,-20.99,-4.61,4
3284329,-0.56,0.48,0.64,1.43,-0.74,-1.11,-3.43,-20.99,-4.61,4
3284340,-0.56,0.48,0.64,1.28,-0.68,-0.76,-3.43,-20.99,-4.61,4
3284351,-0.56,0.49,0.64,1.35,-0.56,-0.34,-3.42,-21.0,-4.87,4
3284365,-0.56,0.49,0.64,1.62,-0.31,0.8,-3.42,-21.0,-4.87,4
3284377,-0.56,0.49,0.64,1.89,-0.2,1.16,-3.42,-21.0,-4.87,4
3284390,-0.56,0.49,0.64,2.44,0.18,1.32,-3.42,-21.0,-4.87,4
3284402,-0.56,0.49,0.64,2.6,0.26,1.24,-3.44,-20.94,-4.8,4
3284412,-0.56,0.48,0.64,2.59,0.29,1.16,-3.44,-20.94,-4.8,4
3284425,-0.56,0.48,0.64,2.42,0.24,0.87,-3.44,-20.94,-4.8,4
3284436,-0.56,0.48,0.64,2.32,-0.06,0.93,-3.44,-20.94,-4.8,4
3284448,-0.56,0.49,0.64,2.2,-0.38,1.05,-3.48,-20.91,-4.9,4
3284460,-0.56,0.48,0.65,2.16,-0.59,1.13,-3.48,-20.91,-4.9,4
3284471,-0.56,0.48,0.65,2.35,-0.37,0.95,-3.48,-20.91,-4.9,4
3284482,-0.56,0.48,0.65,2.27,-0.25,0.89,-3.48,-20.91,-4.9,4
3284494,-0.56,0.48,0.65,1.82,-0.14,0.96,-3.48,-20.91,-4.9,4
3284505,-0.56,0.48,0.65,1.68,-0.16,1.07,-3.59,-20.83,-5.06,4
3284518,-0.56,0.48,0.65,1.34,-0.33,1.37,-3.59,-20.83,-5.06,4
3284529,-0.56,0.48,0.64,1.26,-0.45,1.68,-3.59,-20.83,-5.06,4
3284541,-0.56,0.48,0.64,1.37,-0.45,1.66,-3.59,-20.83,-5.06,4
3284554,-0.57,0.48,0.65,1.43,-0.21,0.78,-3.62,-20.82,-4.93,4
3284566,-0.57,0.48,0.65,1.26,0.01,0.26,-3.62,-20.82,-4.93,4
3284579,-0.56,0.48,0.65,1.0,0.25,-0.48,-3.62,-20.82,-4.93,4
3284591,-0.56,0.48,0.65,0.96,0.33,-0.73,-3.62,-20.82,-4.93,4
3284602,-0.56,0.48,0.65,1.01,0.48,-0.93,-3.67,-20.8,-5.02,4
3284614,-0.55,0.48,0.65,0.89,0.78,-1.02,-3.67,-20.8,-5.02,4
3284625,-0.55,0.49,0.64,0.96,0.81,-0.85,-3.67,-20.8,-5.02,4
3284636,-0.55,0.49,0.64,0.94,0.82,-0.53,-3.67,-20.8,-5.02,4
3284649,-0.55,0.49,0.64,0.9,1.07,0.76,-3.64,-20.73,-5.0,4
3284660,-0.55,0.49,0.64,1.19,1.2,1.34,-3.64,-20.73,-5.0,4
3284672,-0.55,0.49,0.64,2.1,1.24,1.59,-3.64,-20.73,-5.0,4
3284683,-0.56,0.48,0.65,2.29,1.14,1.28,-3.64,-20.73,-5.0,4
3284694,-0.56,0.48,0.65,2.65,1.1,0.74,-3.64,-20.73,-5.0,4
3284705,-0.56,0.48,0.65,3.06,1.09,0.35,-3.61,-20.63,-5.18,4
3284716,-0.56,0.48,0.65,2.92,1.14,0.34,-3.61,-20.63,-5.18,4
3284727,-0.56,0.48,0.65,2.87,1.45,0.6,-3.61,-20.63,-5.18,4
3284739,-0.56,0.48,0.65,3.27,1.8,0.5,-3.61,-20.63,-5.18,4
3284752,-0.56,0.48,0.65,3.55,1.77,-0.1,-3.64,-20.54,-5.19,4
3284763,-0.55,0.48,0.65,3.36,1.45,-0.47,-3.64,-20.54,-5.19,4
3284774,-0.55,0.48,0.65,3.09,1.13,-0.89,-3.64,-20.54,-5.19,4
3284786,-0.55,0.48,0.65,2.36,0.26,-1.07,-3.64,-20.54,-5.19,4
3284797,-0.55,0.48,0.65,2.12,0.07,-0.7,-3.65,-20.47,-5.48,4
3284809,-0.55,0.49,0.65,2.17,0.08,-0.22,-3.65,-20.47,-5.48,4
3284820,-0.55,0.48,0.65,2.32,0.19,0.21,-3.65,-20.47,-5.48,4
3284831,-0.55,0.48,0.65,2.45,0.27,0.49,-3.65,-20.47,-5.48,4
3284844,-0.55,0.48,0.65,2.57,0.25,0.26,-3.65,-20.47,-5.48,4
3284856,-0.55,0.48,0.65,2.6,0.17,0.28,-3.64,-20.42,-5.61,4
3284868,-0.55,0.48,0.65,2.56,0.06,0.44,-3.64,-20.42,-5.61,4
3284878,-0.55,0.48,0.65,2.49,-0.09,0.82,-3.64,-20.42,-5.61,4
3284890,-0.55,0.48,0.65,2.38,-0.17,0.84,-3.64,-20.42,-5.61,4
3284901,-0.55,0.48,0.65,2.29,-0.22,0.61,-3.68,-20.55,-5.8,4
3284915,-0.56,0.48,0.66,2.07,-0.23,-0.38,-3.68,-20.55,-5.8,4
3284927,-0.55,0.48,0.66,1.81,-0.26,-0.77,-3.68,-20.55,-5.8,4
3284940,-0.55,0.48,0.65,1.5,-0.4,-0.8,-3.68,-20.55,-5.8,4
3284952,-0.54,0.48,0.65,1.46,-0.43,-0.5,-3.7,-20.56,-5.92,4
3284964,-0.54,0.48,0.65,1.33,-0.76,0.09,-3.7,-20.56,-5.92,4
3284976,-0.55,0.48,0.65,1.28,-1.03,0.38,-3.7,-20.56,-5.92,4
3284988,-0.55,0.48,0.65,1.23,-1.27,0.63,-3.7,-20.56,-5.92,4
3285001,-0.55,0.48,0.65,1.53,-1.54,0.84,-3.59,-20.51,-5.78,4
3285013,-0.55,0.48,0.65,1.72,-1.6,0.7,-3.59,-20.51,-5.78,4
3285023,-0.55,0.48,0.65,1.74,-1.63,0.42,-3.59,-20.51,-5.78,4
3285035,-0.55,0.48,0.65,1.76,-1.5,-0.03,-3.59,-20.51,-5.78,4
3285046,-0.55,0.48,0.65,1.74,-1.44,-0.04,-3.55,-20.43,-5.79,4
3285057,-0.55,0.48,0.65,1.74,-1.36,0.13,-3.55,-20.43,-5.79,4
3285069,-0.55,0.48,0.65,1.91,-1.21,0.65,-3.55,-20.43,-5.79,4
3285081,-0.55,0.48,0.65,2.04,-1.16,0.82,-3.55,-20.43,-5.79,4
3285093,-0.55,0.48,0.65,2.3,-0.92,0.18,-3.55,-20.43,-5.79,4
3285106,-0.55,0.47,0.66,2.21,-0.83,-0.33,-3.65,-20.45,-5.71,4
3285117,-0.55,0.47,0.66,2.05,-0.73,-0.8,-3.65,-20.45,-5.71,4
3285130,-0.55,0.48,0.66,1.7,-0.53,-1.33,-3.65,-20.45,-5.71,4
3285141,-0.55,0.48,0.66,1.65,-0.41,-1.41,-3.65,-20.45,-5.71,4
3285155,-0.55,0.49,0.65,1.23,-0.43,-0.9,-3.76,-20.42,-5.67,4
3285167,-0.54,0.49,0.65,1.15,-0.54,-0.43,-3.76,-20.42,-5.67,4
3285181,-0.54,0.49,0.65,1.44,-1.03,1.05,-3.76,-20.42,-5.67,4
3285192,-0.54,0.49,0.65,1.59,-1.33,1.95,-3.76,-20.42,-5.67,4
3285204,-0.55,0.49,0.65,1.72,-1.59,2.74,-3.67,-20.38,-5.92,4
3285216,-0.56,0.48,0.65,2.66,-1.67,-0.81,-3.67,-20.38,-5.92,4
3285228,-0.56,0.48,0.66,2.9,-1.64,-0.68,-3.67,-20.38,-5.92,4
3285239,-0.56,0.47,0.66,2.48,-1.65,-1.01,-3.67,-20.38,-5.92,4
3285252,-0.55,0.46,0.66,2.15,-1.64,-1.27,-3.65,-20.43,-5.67,4
3285263,-0.55,0.46,0.66,1.66,-1.63,-1.47,-3.65,-20.43,-5.67,4
3285276,-0.55,0.47,0.66,0.88,-1.71,-1.61,-3.65,-20.43,-5.67,4
3285287,-0.55,0.48,0.65,0.72,-1.72,-1.49,-3.65,-20.43,-5.67,4
3285300,-0.55,0.48,0.65,0.92,-1.64,-0.98,-3.63,-20.46,-5.82,4
3285311,-0.54,0.49,0.65,1.04,-1.6,-0.5,-3.63,-20.46,-5.82,4
3285323,-0.54,0.49,0.65,1.1,-1.57,0.12,-3.63,-20.46,-5.82,4
3285334,-0.54,0.49,0.65,1.38,-1.62,1.42,-3.63,-20.46,-5.82,4
3285347,-0.54,0.49,0.65,1.59,-1.64,1.91,-3.66,-20.43,-5.61,4
3285360,-0.55,0.48,0.65,1.87,-1.45,1.9,-3.66,-20.43,-5.61,4
3285371,-0.56,0.48,0.65,1.92,-1.33,1.46,-3.66,-20.43,-5.61,4
3285383,-0.56,0.48,0.66,2.06,-1.26,0.92,-3.66,-20.43,-5.61,4
3285394,-0.56,0.47,0.66,1.82,-0.98,-0.07,-3.66,-20.43,-5.61,4
3285406,-0.55,0.48,0.66,1.65,-0.94,-0.33,-3.64,-20.42,-5.58,4
3285418,-0.55,0.48,0.65,1.5,-0.93,-0.29,-3.64,-20.42,-5.58,4
3285430,-0.55,0.48,0.65,1.31,-1.04,0.49,-3.64,-20.42,-5.58,4
3285442,-0.55,0.48,0.65,1.49,-1.1,0.85,-3.64,-20.42,-5.58,4
3285454,-0.55,0.48,0.65,1.74,-1.34,1.19,-3.46,-20.31,-5.63,4
3285465,-0.55,0.48,0.65,1.68,-1.47,1.08,-3.46,-20.31,-5.63,4
3285477,-0.55,0.48,0.65,1.74,-1.55,0.73,-3.46,-20.31,-5.63,4
3285490,-0.56,0.48,0.66,1.74,-1.46,-0.01,-3.46,-20.31,-5.63,4
3285502,-0.56,0.48,0.66,1.6,-1.41,-0.07,-3.52,-20.39,-5.61,4
3285516,-0.56,0.48,0.66,1.52,-1.12,-0.15,-3.52,-20.39,-5.61,4
3285527,-0.56,0.48,0.65,1.43,-1.09,-0.19,-3.52,-20.39,-5.61,4
3285538,-0.56,0.48,0.65,1.56,-1.16,-0.43,-3.52,-20.39,-5.61,4
3285551,-0.56,0.48,0.65,1.98,-1.03,-1.14,-3.52,-20.47,-5.79,4
3285563,-0.55,0.48,0.65,1.95,-0.95,-1.29,-3.52,-20.47,-5.79,4
3285574,-0.55,0.48,0.65,1.73,-0.93,-1.01,-3.52,-20.47,-5.79,4
3285585,-0.55,0.48,0.65,1.64,-0.97,-0.65,-3.52,-20.47,-5.79,4
3285597,-0.55,0.48,0.65,1.6,-1.03,-0.21,-3.41,-20.45,-5.61,4
3285611,-0.55,0.48,0.65,1.56,-1.22,0.49,-3.41,-20.45,-5.61,4
3285622,-0.55,0.48,0.65,1.81,-1.04,0.6,-3.41,-20.45,-5.61,4
3285633,-0.55,0.48,0.65,2.18,-0.8,0.52,-3.41,-20.45,-5.61,4
3285646,-0.56,0.48,0.66,2.43,-0.61,-0.04,-3.32,-20.5,-5.57,4
3285658,-0.55,0.48,0.66,2.24,-0.61,-0.37,-3.32,-20.5,-5.57,4
3285670,-0.55,0.48,0.65,1.74,-0.64,-0.65,-3.32,-20.5,-5.57,4
3285682,-0.55,0.48,0.65,1.59,-0.76,-0.48,-3.32,-20.5,-5.57,4
3285697,-0.55,0.48,0.65,1.44,-0.89,0.37,-3.29,-20.55,-5.54,4
3285709,-0.55,0.48,0.65,1.55,-0.81,0.69,-3.29,-20.55,-5.54,4
3285722,-0.55,0.48,0.65,1.88,-0.71,0.62,-3.29,-20.55,-5.54,4
3285734,-0.55,0.48,0.65,2.01,-0.73,0.23,-3.29,-20.55,-5.54,4
3285745,-0.55,0.48,0.66,1.9,-0.87,-0.13,-3.36,-20.63,-5.65,4
3285757,-0.55,0.48,0.66,1.68,-1.05,-0.32,-3.36,-20.63,-5.65,4
3285768,-0.55,0.48,0.66,1.49,-1.06,-0.09,-3.36,-20.63,-5.65,4
3285779,-0.55,0.48,0.66,1.35,-1.01,0.19,-3.36,-20.63,-5.65,4
3285791,-0.55,0.48,0.65,1.17,-1.03,0.6,-3.36,-20.63,-5.65,4
3285802,-0.55,0.48,0.65,1.17,-0.98,0.52,-3.39,-20.69,-5.69,4
3285815,-0.55,0.48,0.65,1.38,-0.86,0.05,-3.39,-20.69,-5.69,4
3285826,-0.55,0.48,0.65,1.63,-0.92,-0.26,-3.39,-20.69,-5.69,4
3285838,-0.54,0.48,0.65,1.71,-1.09,-0.47,-3.39,-20.69,-5.69,4
3285851,-0.55,0.48,0.65,1.75,-1.44,-0.27,-3.47,-20.62,-5.76,4
3285863,-0.55,0.48,0.65,1.73,-1.43,0.08,-3.47,-20.62,-5.76,4
3285876,-0.56,0.48,0.66,1.77,-1.17,0.35,-3.47,-20.62,-5.76,4
3285887,-0.56,0.48,0.66,1.7,-1.04,0.03,-3.47,-20.62,-5.76,4
3285898,-0.55,0.48,0.65,1.5,-0.91,-0.4,-3.46,-20.63,-5.85,4
3285909,-0.55,0.48,0.65,1.66,-0.7,-1.09,-3.46,-20.63,-5.85,4
3285920,-0.55,0.48,0.65,1.77,-0.62,-1.16,-3.46,-20.63,-5.85,4
3285931,-0.55,0.48,0.65,1.78,-0.63,-0.93,-3.46,-20.63,-5.85,4
3285944,-0.55,0.48,0.65,1.77,-0.93,-0.17,-3.46,-20.63,-5.85,4
3285956,-0.55,0.48,0.65,1.73,-1.13,0.26,-3.41,-20.48,-5.64,4
3285967,-0.55,0.48,0.65,1.69,-1.26,0.62,-3.41,-20.48,-5.64,4
3285980,-0.55,0.48,0.65,1.73,-1.32,1.09,-3.41,-20.48,-5.64,4
3285991,-0.55,0.48,0.65,1.62,-1.37,1.32,-3.41,-20.48,-5.64,4
3286004,-0.55,0.48,0.65,1.48,-1.38,1.48,-3.35,-20.51,-5.74,4
3286015,-0.55,0.48,0.65,1.49,-1.25,1.25,-3.35,-20.51,-5.74,4
3286027,-0.55,0.47,0.65,1.58,-1.19,0.92,-3.35,-20.51,-5.74,4
3286038,-0.55,0.47,0.65,1.41,-1.27,0.23,-3.35,-20.51,-5.74,4
3286050,-0.55,0.48,0.65,1.4,-1.32,-0.08,-3.36,-20.64,-5.51,4
3286062,-0.55,0.48,0.65,1.37,-1.37,-0.21,-3.36,-20.64,-5.51,4
3286074,-0.55,0.48,0.65,1.2,-1.34,-0.03,-3.36,-20.64,-5.51,4
3286086,-0.55,0.48,0.65,1.32,-1.34,0.04,-3.36,-20.64,-5.51,4
3286098,-0.55,0.48,0.65,1.72,-1.28,0.02,-3.44,-20.59,-5.63,4
3286109,-0.55,0.48,0.65,1.86,-1.25,-0.04,-3.44,-20.59,-5.63,4
3286121,-0.55,0.48,0.65,2.02,-1.21,-0.08,-3.44,-20.59,-5.63,4
3286132,-0.55,0.48,0.65,2.22,-1.08,0.2,-3.44,-20.59,-5.63,4
3286144,-0.55,0.48,0.65,2.25,-1.05,0.37,-3.34,-20.62,-5.54,4
3286155,-0.55,0.48,0.65,2.23,-1.05,0.45,-3.34,-20.62,-5.54,4
3286168,-0.56,0.48,0.66,1.88,-0.93,0.14,-3.34,-20.62,-5.54,4
3286179,-0.56,0.48,0.66,1.68,-0.93,-0.13,-3.34,-20.62,-5.54,4
3286190,-0.56,0.48,0.66,1.51,-0.86,-0.41,-3.34,-20.62,-5.54,4
3286204,-0.55,0.48,0.65,1.2,-0.82,-0.65,-3.39,-20.7,-5.18,4
3286216,-0.55,0.48,0.65,1.07,-0.88,-0.7,-3.39,-20.7,-5.18,4
3286227,-0.55,0.48,0.65,1.25,-0.99,-0.81,-3.39,-20.7,-5.18,4
3286238,-0.55,0.49,0.65,1.55,-0.96,-1.0,-3.39,-20.7,-5.18,4
3286249,-0.55,0.48,0.65,1.77,-0.87,-1.19,-3.44,-20.75,-5.16,4
3286263,-0.55,0.48,0.65,1.87,-0.65,-1.4,-3.44,-20.75,-5.16,4
3286275,-0.55,0.48,0.65,1.81,-0.6,-1.36,-3.44,-20.75,-5.16,4
3286289,-0.55,0.48,0.65,1.68,-0.71,-0.92,-3.44,-20.75,-5.16,4
3286300,-0.55,0.49,0.65,1.62,-0.73,-0.49,-3.36,-20.73,-5.14,4
3286311,-0.55,0.49,0.65,1.57,-0.73,0.16,-3.36,-20.73,-5.14,4
3286323,-0.55,0.49,0.65,1.84,-0.64,1.45,-3.36,-20.73,-5.14,4
3286335,-0.55,0.48,0.65,1.96,-0.57,1.86,-3.36,-20.73,-5.14,4
3286347,-0.55,0.48,0.65,2.34,-0.45,2.03,-3.36,-20.72,-5.27,4
3286358,-0.55,0.48,0.65,2.45,-0.39,1.87,-3.36,-20.72,-5.27,4
3286370,-0.55,0.48,0.65,2.41,-0.32,1.48,-3.36,-20.72,-5.27,4
3286384,-0.55,0.48,0.66,2.16,-0.41,0.7,-3.36,-20.72,-5.27,4
3286395,-0.55,0.47,0.66,1.98,-0.51,0.52,-3.41,-20.68,-5.44,4
3286409,-0.55,0.47,0.66,1.69,-0.58,0.27,-3.41,-20.68,-5.44,4
3286421,-0.55,0.48,0.66,1.54,-0.65,0.11,-3.41,-20.68,-5.44,4
3286431,-0.55,0.48,0.66,1.49,-0.72,-0.09,-3.41,-20.68,-5.44,4
3286444,-0.55,0.48,0.65,1.67,-0.7,-0.72,-3.49,-20.68,-5.47,4
3286456,-0.55,0.48,0.65,1.7,-0.69,-0.86,-3.49,-20.68,-5.47,4
3286467,-0.55,0.48,0.65,1.66,-0.64,-0.6,-3.49,-20.68,-5.47,4
3286479,-0.55,0.48,0.65,1.72,-0.6,-0.32,-3.49,-20.68,-5.47,4
3286490,-0.55,0.48,0.65,1.85,-0.5,-0.09,-3.49,-20.68,-5.47,4
3286504,-0.55,0.48,0.65,2.78,-0.12,0.06,-3.45,-20.73,-5.52,4
3286515,-0.55,0.48,0.66,3.23,0.12,0.24,-3.45,-20.73,-5.52,4
3286526,-0.55,0.48,0.65,3.59,0.39,0.33,-3.45,-20.73,-5.52,4
3286538,-0.55,0.48,0.66,4.13,1.17,0.74,-3.45,-20.73,-5.52,4
3286549,-0.55,0.48,0.66,4.0,1.04,1.21,-3.37,-20.78,-5.55,4
3286562,-0.54,0.47,0.66,3.67,0.63,1.85,-3.37,-20.78,-5.55,4
3286573,-0.55,0.47,0.66,3.48,0.61,1.93,-3.37,-20.78,-5.55,4
3286585,-0.55,0.47,0.66,3.32,0.68,1.78,-3.37,-20.78,-5.55,4
3286598,-0.55,0.47,0.66,2.46,0.83,1.11,-3.31,-20.85,-5.53,4
3286609,-0.55,0.47,0.66,1.95,0.92,0.69,-3.31,-20.85,-5.53,4
3286622,-0.55,0.48,0.66,1.49,1.08,-0.28,-3.31,-20.85,-5.53,4
3286633,-0.54,0.48,0.66,1.43,1.0,-0.65,-3.31,-20.85,-5.53,4
3286644,-0.54,0.48,0.66,1.33,0.78,-0.79,-3.4,-20.79,-5.78,4
3286658,-0.54,0.48,0.66,1.39,0.31,-0.21,-3.4,-20.79,-5.78,4
3286670,-0.54,0.48,0.66,1.56,0.2,0.29,-3.4,-20.79,-5.78,4
3286683,-0.54,0.48,0.66,1.97,-0.09,1.18,-3.4,-20.79,-5.78,4
3286695,-0.54,0.48,0.66,2.38,-0.13,1.21,-3.35,-20.77,-5.84,4
3286706,-0.54,0.48,0.66,2.7,-0.19,1.09,-3.35,-20.77,-5.84,4
3286719,-0.55,0.47,0.66,3.01,-0.28,0.88,-3.35,-20.77,-5.84,4
3286731,-0.55,0.47,0.66,3.1,-0.32,0.89,-3.35,-20.77,-5.84,4
3286741,-0.55,0.47,0.66,3.21,-0.21,0.94,-3.35,-20.77,-5.84,4
3286754,-0.54,0.47,0.66,3.57,0.37,1.47,-3.34,-20.75,-5.94,4
3286765,-0.54,0.47,0.66,3.76,0.84,1.99,-3.34,-20.75,-5.94,4
3286776,-0.54,0.47,0.66,3.48,1.55,2.89,-3.34,-20.75,-5.94,4
3286787,-0.55,0.47,0.66,3.31,1.49,2.83,-3.34,-20.75,-5.94,4
3286798,-0.54,0.47,0.66,3.3,1.47,2.33,-3.29,-20.63,-5.68,4
3286809,-0.54,0.47,0.66,3.26,1.58,1.7,-3.29,-20.63,-5.68,4
3286821,-0.54,0.47,0.66,3.32,2.17,1.25,-3.29,-20.63,-5.68,4
3286833,-0.54,0.48,0.66,3.69,2.58,1.51,-3.29,-20.63,-5.68,4
3286844,-0.54,0.48,0.67,4.2,3.05,1.99,-3.33,-20.56,-5.75,4
3286855,-0.55,0.47,0.67,4.75,3.57,2.44,-3.33,-20.56,-5.75,4
3286867,-0.54,0.47,0.67,5.2,4.29,2.36,-3.33,-20.56,-5.75,4
3286880,-0.54,0.46,0.67,5.85,7.73,1.74,-3.33,-20.56,-5.75,4
3286891,-0.54,0.47,0.67,6.01,9.18,1.76,-3.33,-20.56,-5.75,4
3286902,-0.53,0.47,0.67,6.55,10.32,1.98,-3.38,-20.59,-6.0,4
3286916,-0.53,0.47,0.68,7.95,12.79,2.68,-3.38,-20.59,-6.0,4
3286927,-0.53,0.47,0.68,8.69,14.01,3.75,-3.38,-20.59,-6.0,4
3286940,-0.53,0.47,0.68,9.76,15.15,5.87,-3.38,-20.59,-6.0,4
3286952,-0.53,0.46,0.69,10.2,14.79,6.01,-3.27,-20.39,-6.13,4
3286964,-0.52,0.46,0.69,10.26,14.03,5.8,-3.27,-20.39,-6.13,4
3286976,-0.52,0.46,0.69,10.0,12.0,5.39,-3.27,-20.39,-6.13,4
3286987,-0.52,0.46,0.7,9.58,11.01,5.65,-3.27,-20.39,-6.13,4
3286998,-0.52,0.46,0.7,8.94,9.99,6.15,-3.23,-20.35,-6.31,4
3287011,-0.52,0.45,0.7,7.62,8.22,6.71,-3.23,-20.35,-6.31,4
3287021,-0.52,0.44,0.7,6.85,7.48,6.39,-3.23,-20.35,-6.31,4
3287032,-0.52,0.43,0.7,6.06,6.78,5.64,-3.23,-20.35,-6.31,4
3287045,-0.52,0.43,0.71,4.69,5.95,3.28,-3.18,-20.23,-6.71,4
3287057,-0.52,0.43,0.71,4.03,5.97,2.15,-3.18,-20.23,-6.71,4
3287068,-0.52,0.44,0.71,2.88,6.81,0.71,-3.18,-20.23,-6.71,4
3287079,-0.52,0.44,0.71,2.54,7.18,0.61,-3.18,-20.23,-6.71,4
3287091,-0.51,0.44,0.71,2.2,7.28,1.01,-3.18,-20.23,-6.71,4
3287103,-0.51,0.44,0.71,1.48,6.96,2.65,-3.26,-20.01,-7.0,4
3287114,-0.5,0.45,0.7,1.35,6.81,3.63,-3.26,-20.01,-7.0,4
3287126,-0.5,0.45,0.71,1.62,6.56,4.51,-3.26,-20.01,-7.0,4
3287137,-0.51,0.45,0.71,2.66,5.4,5.13,-3.26,-20.01,-7.0,4
3287149,-0.51,0.44,0.71,2.83,4.58,4.81,-3.32,-19.92,-7.22,4
3287161,-0.51,0.43,0.71,2.7,3.81,4.22,-3.32,-19.92,-7.22,4
3287171,-0.51,0.43,0.71,2.45,3.03,2.38,-3.32,-19.92,-7.22,4
3287183,-0.51,0.43,0.71,2.64,3.23,1.37,-3.32,-19.92,-7.22,4
3287194,-0.51,0.43,0.72,2.77,3.89,0.52,-3.37,-19.75,-7.59,4
3287208,-0.51,0.43,0.72,2.49,5.31,-0.68,-3.37,-19.75,-7.59,4
3287218,-0.51,0.43,0.72,2.23,5.66,-1.01,-3.37,-19.75,-7.59,4
3287229,-0.5,0.44,0.72,2.02,5.65,-1.1,-3.37,-19.75,-7.59,4
3287243,-0.5,0.45,0.72,1.56,4.9,-0.28,-3.37,-19.69,-7.75,4
3287253,-0.5,0.45,0.72,1.71,4.21,0.21,-3.37,-19.69,-7.75,4
3287265,-0.5,0.45,0.72,2.15,3.56,0.42,-3.37,-19.69,-7.75,4
3287277,-0.5,0.44,0.72,2.93,2.67,0.43,-3.37,-19.69,-7.75,4
3287287,-0.5,0.44,0.72,3.13,2.13,0.35,-3.37,-19.69,-7.75,4
3287298,-0.5,0.43,0.72,3.28,1.53,0.18,-3.41,-19.67,-8.11,4
3287309,-0.5,0.43,0.72,3.26,0.72,-0.27,-3.41,-19.67,-8.11,4
3287320,-0.5,0.43,0.72,3.23,0.53,-0.28,-3.41,-19.67,-8.11,4
3287332,-0.5,0.44,0.72,3.14,0.33,-0.06,-3.41,-19.67,-8.11,4
3287344,-0.5,0.44,0.72,3.02,0.22,0.81,-3.36,-19.79,-8.18,4
3287356,-0.5,0.44,0.72,3.31,0.38,1.28,-3.36,-19.79,-8.18,4
3287368,-0.5,0.44,0.72,3.94,0.76,1.59,-3.36,-19.79,-8.18,4
3287379,-0.5,0.43,0.72,5.24,1.12,1.55,-3.36,-19.79,-8.18,4
3287391,-0.5,0.43,0.73,5.67,1.22,1.04,-3.36,-19.79,-8.18,4
3287403,-0.5,0.43,0.73,5.98,1.08,-0.58,-3.37,-19.66,-8.35,4
3287415,-0.5,0.43,0.73,5.94,0.93,-1.43,-3.37,-19.66,-8.35,4
3287427,-0.5,0.43,0.73,5.87,0.76,-1.98,-3.37,-19.66,-8.35,4
3287438,-0.5,0.43,0.73,7.0,1.34,-2.9,-3.37,-19.66,-8.35,4
3287450,-0.5,0.43,0.73,8.9,2.89,-3.58,-3.39,-19.66,-8.65,4
3287462,-0.5,0.43,0.73,11.1,5.06,-4.31,-3.39,-19.66,-8.65,4
3287474,-0.49,0.42,0.73,14.07,9.76,-5.42,-3.39,-19.66,-8.65,4
3287486,-0.49,0.42,0.74,14.98,11.35,-5.64,-3.39,-19.66,-8.65,4
3287499,-0.47,0.41,0.74,14.9,12.66,-5.23,-3.18,-19.62,-8.89,4
3287511,-0.47,0.41,0.75,14.4,12.59,-4.84,-3.18,-19.62,-8.89,4
3287525,-0.46,0.42,0.75,13.04,11.13,-4.05,-3.18,-19.62,-8.89,4
3287537,-0.47,0.43,0.75,12.27,9.9,-3.46,-3.18,-19.62,-8.89,4
3287548,-0.47,0.43,0.75,11.81,8.69,-2.96,-2.98,-19.48,-9.21,4
3287560,-0.47,0.43,0.75,11.19,6.39,-2.51,-2.98,-19.48,-9.21,4
3287572,-0.47,0.42,0.75,10.45,5.21,-2.43,-2.98,-19.48,-9.21,4
3287586,-0.47,0.41,0.75,8.75,3.38,-2.53,-2.98,-19.48,-9.21,4
3287597,-0.46,0.41,0.75,8.45,3.07,-2.82,-3.01,-19.42,-9.47,4
3287611,-0.46,0.41,0.76,7.93,2.78,-2.67,-3.01,-19.42,-9.47,4
3287623,-0.46,0.41,0.76,7.69,2.61,-1.99,-3.01,-19.42,-9.47,4
3287633,-0.46,0.41,0.76,7.74,2.68,-1.09,-3.01,-19.42,-9.47,4
3287646,-0.45,0.41,0.76,7.68,2.76,0.93,-2.84,-19.26,-9.67,4
3287658,-0.45,0.41,0.76,7.16,2.37,2.0,-2.84,-19.26,-9.67,4
3287668,-0.45,0.41,0.76,6.23,1.74,2.95,-2.84,-19.26,-9.67,4
3287680,-0.46,0.4,0.76,4.59,0.22,3.67,-2.84,-19.26,-9.67,4
3287692,-0.47,0.4,0.77,4.06,-0.36,3.21,-2.53,-19.18,-10.09,4
3287703,-0.47,0.4,0.77,3.66,-0.75,2.33,-2.53,-19.18,-10.09,4
3287714,-0.47,0.4,0.77,3.46,-1.0,1.28,-2.53,-19.18,-10.09,4
3287726,-0.47,0.4,0.77,3.26,-1.04,0.3,-2.53,-19.18,-10.09,4
3287740,-0.46,0.4,0.77,2.08,-1.34,-0.28,-2.53,-19.18,-10.09,4
3287751,-0.46,0.4,0.77,1.58,-1.5,0.01,-2.45,-19.08,-10.2,4
3287763,-0.45,0.4,0.76,1.38,-1.51,0.33,-2.45,-19.08,-10.2,4
3287775,-0.45,0.41,0.76,1.73,-1.23,0.84,-2.45,-19.08,-10.2,4
3287787,-0.45,0.41,0.76,2.01,-1.11,1.02,-2.45,-19.08,-10.2,4
3287800,-0.45,0.41,0.76,2.06,-1.27,1.55,-2.41,-19.05,-10.35,4
3287812,-0.46,0.41,0.76,1.94,-1.43,1.89,-2.41,-19.05,-10.35,4
3287822,-0.46,0.41,0.76,1.82,-1.63,2.35,-2.41,-19.05,-10.35,4
3287833,-0.46,0.41,0.76,2.23,-1.59,3.02,-2.41,-19.05,-10.35,4
3287845,-0.47,0.4,0.76,2.48,-1.32,2.93,-2.21,-19.11,-10.59,4
3287857,-0.47,0.4,0.76,2.72,-0.9,2.45,-2.21,-19.11,-10.59,4
3287869,-0.47,0.39,0.77,2.73,-0.04,0.68,-2.21,-19.11,-10.59,4
3287881,-0.47,0.39,0.77,2.4,0.09,-0.23,-2.21,-19.11,-10.59,4
3287892,-0.46,0.39,0.77,2.02,0.07,-0.93,-2.17,-19.12,-10.7,4
3287903,-0.45,0.4,0.77,1.59,-0.08,-1.3,-2.17,-19.12,-10.7,4
3287915,-0.45,0.4,0.76,1.2,-0.45,-1.0,-2.17,-19.12,-10.7,4
3287926,-0.45,0.41,0.76,1.03,-0.8,-0.39,-2.17,-19.12,-10.7,4
3287938,-0.46,0.41,0.76,1.44,-1.04,0.82,-2.17,-19.12,-10.7,4
3287949,-0.46,0.41,0.76,1.7,-1.01,1.36,-2.11,-19.2,-10.76,4
3287963,-0.46,0.41,0.76,2.21,-0.78,2.01,-2.11,-19.2,-10.76,4
3287975,-0.47,0.41,0.76,2.45,-0.68,2.19,-2.11,-19.2,-10.76,4
3287987,-0.47,0.41,0.76,2.71,-0.72,2.16,-2.11,-19.2,-10.76,4
3287999,-0.46,0.39,0.77,2.74,-0.75,1.83,-2.18,-19.04,-11.02,4
3288010,-0.46,0.39,0.77,2.56,-0.83,1.32,-2.18,-19.04,-11.02,4
3288023,-0.46,0.39,0.77,1.99,-0.99,0.34,-2.18,-19.04,-11.02,4
3288034,-0.46,0.4,0.76,1.89,-0.88,0.02,-2.18,-19.04,-11.02,4
3288045,-0.47,0.4,0.76,2.07,-0.64,-0.09,-2.18,-18.94,-11.17,4
3288056,-0.46,0.4,0.76,2.74,-0.11,0.68,-2.18,-18.94,-11.17,4
3288067,-0.46,0.4,0.76,2.7,-0.03,1.27,-2.18,-18.94,-11.17,4
3288079,-0.46,0.4,0.76,2.91,-0.02,1.51,-2.18,-18.94,-11.17,4
3288091,-0.46,0.4,0.76,3.3,0.06,0.85,-2.12,-18.85,-11.37,4
3288103,-0.46,0.39,0.77,3.34,-0.01,0.37,-2.12,-18.85,-11.37,4
3288115,-0.46,0.39,0.77,3.26,-0.06,-0.08,-2.12,-18.85,-11.37,4
3288127,-0.46,0.4,0.77,2.79,-0.43,-0.72,-2.12,-18.85,-11.37,4
3288139,-0.46,0.4,0.77,2.65,-0.65,-0.92,-2.12,-18.85,-11.37,4
3288152,-0.46,0.4,0.77,2.43,-0.9,-0.99,-2.22,-18.73,-11.41,4
3288164,-0.46,0.4,0.77,2.48,-0.88,-0.93,-2.22,-18.73,-11.41,4
3288178,-0.46,0.4,0.77,2.7,-0.92,-0.73,-2.22,-18.73,-11.41,4
3288189,-0.46,0.39,0.77,2.59,-0.89,-0.57,-2.22,-18.73,-11.41,4
3288201,-0.46,0.39,0.77,2.25,-1.02,-0.4,-2.22,-18.67,-11.31,4
3288213,-0.46,0.39,0.77,1.32,-1.5,-0.68,-2.22,-18.67,-11.31,4
3288225,-0.46,0.4,0.77,0.91,-1.78,-0.91,-2.22,-18.67,-11.31,4
