time,acc_x,acc_y,acc_z,gyro_x,gyro_y,gyro_z,mag_x,mag_y,mag_z,label
3690318,0.54,-0.54,-0.66,2.38,0.95,0.22,45.02,12.41,29.54,4
3690330,0.55,-0.54,-0.66,3.01,2.28,1.05,45.02,12.41,29.54,4
3690341,0.55,-0.54,-0.67,3.32,2.56,1.14,45.02,12.41,29.54,4
3690353,0.55,-0.53,-0.67,3.42,2.59,1.07,45.02,12.41,29.54,4
3690364,0.55,-0.53,-0.67,3.42,2.47,0.9,45.05,12.47,29.5,4
3690375,0.55,-0.53,-0.67,3.45,2.31,0.62,45.05,12.47,29.5,4
3690387,0.55,-0.53,-0.67,3.55,2.03,0.15,45.05,12.47,29.5,4
3690399,0.54,-0.53,-0.67,4.44,2.12,-0.08,45.05,12.47,29.5,4
3690410,0.55,-0.53,-0.68,5.12,2.81,0.02,45.05,12.47,29.5,4
3690421,0.55,-0.53,-0.68,5.59,3.26,0.06,44.98,12.47,29.58,4
3690434,0.55,-0.53,-0.68,5.17,2.79,-0.27,44.98,12.47,29.58,4
3690445,0.54,-0.53,-0.68,4.47,2.32,-0.52,44.98,12.47,29.58,4
3690457,0.54,-0.53,-0.68,3.67,1.85,-0.75,44.98,12.47,29.58,4
3690469,0.54,-0.53,-0.68,1.97,0.86,-1.21,45.02,12.35,29.56,4
3690481,0.54,-0.53,-0.67,1.19,0.36,-1.42,45.02,12.35,29.56,4
3690493,0.54,-0.53,-0.67,0.54,0.02,-1.59,45.02,12.35,29.56,4
3690504,0.54,-0.52,-0.66,0.96,0.01,-1.55,45.02,12.35,29.56,4
3690515,0.54,-0.52,-0.67,1.77,0.04,-1.42,44.88,12.36,29.6,4
3690528,0.54,-0.52,-0.67,3.68,-0.6,-1.27,44.88,12.36,29.6,4
3690539,0.53,-0.52,-0.68,4.28,-1.04,-1.36,44.88,12.36,29.6,4
3690551,0.53,-0.52,-0.68,4.33,-1.5,-1.49,44.88,12.36,29.6,4
3690566,0.53,-0.53,-0.68,3.15,-1.77,-1.45,44.78,12.38,29.61,4
3690577,0.53,-0.53,-0.68,2.48,-1.49,-1.18,44.78,12.38,29.61,4
3690590,0.54,-0.53,-0.68,1.67,-0.37,-0.25,44.78,12.38,29.61,4
3690600,0.54,-0.54,-0.67,1.84,0.41,0.32,44.78,12.38,29.61,4
3690611,0.55,-0.54,-0.67,2.23,1.24,0.73,44.78,12.38,29.61,4
3690624,0.56,-0.53,-0.68,2.67,1.13,0.62,44.73,12.24,29.61,4
3690634,0.55,-0.53,-0.68,2.68,0.35,0.07,44.73,12.24,29.61,4
3690645,0.55,-0.53,-0.68,2.59,-0.56,-0.55,44.73,12.24,29.61,4
3690659,0.54,-0.53,-0.67,2.22,-2.2,-1.38,44.73,12.24,29.61,4
3690670,0.53,-0.53,-0.67,2.2,-2.81,-1.55,44.84,12.19,29.59,4
3690683,0.52,-0.52,-0.67,2.97,-3.12,-0.83,44.84,12.19,29.59,4
3690694,0.52,-0.52,-0.67,3.73,-2.58,-0.17,44.84,12.19,29.59,4
3690706,0.52,-0.53,-0.68,4.28,-1.7,0.48,44.84,12.19,29.59,4
3690719,0.53,-0.53,-0.68,4.26,0.05,2.06,44.93,12.19,29.46,4
3690730,0.54,-0.53,-0.69,3.94,1.08,2.51,44.93,12.19,29.46,4
3690744,0.55,-0.53,-0.69,3.44,2.91,3.01,44.93,12.19,29.46,4
3690756,0.56,-0.53,-0.69,3.33,3.47,2.82,44.93,12.19,29.46,4
3690766,0.56,-0.52,-0.69,3.19,3.26,2.1,44.81,12.07,29.36,4
3690777,0.55,-0.52,-0.69,2.34,1.04,-0.18,44.81,12.07,29.36,4
3690788,0.54,-0.52,-0.68,1.7,-0.36,-1.37,44.81,12.07,29.36,4
3690800,0.53,-0.52,-0.68,1.22,-1.5,-2.18,44.81,12.07,29.36,4
3690815,0.51,-0.52,-0.67,1.2,-2.56,-2.5,44.74,12.09,29.43,4
3690826,0.51,-0.52,-0.67,1.76,-2.64,-2.19,44.74,12.09,29.43,4
3690837,0.51,-0.52,-0.67,3.62,-0.96,-0.37,44.74,12.09,29.43,4
3690848,0.52,-0.53,-0.68,4.29,0.44,1.21,44.74,12.09,29.43,4
3690860,0.53,-0.53,-0.68,4.69,1.9,2.73,44.74,12.09,29.43,4
3690872,0.54,-0.53,-0.69,4.9,4.98,4.57,44.72,12.12,29.44,4
3690883,0.56,-0.53,-0.69,4.48,5.61,4.34,44.72,12.12,29.44,4
3690894,0.56,-0.53,-0.7,3.57,5.15,3.49,44.72,12.12,29.44,4
3690907,0.55,-0.52,-0.7,1.51,2.51,1.17,44.72,12.12,29.44,4
3690918,0.54,-0.52,-0.69,1.01,1.32,0.13,44.57,12.02,29.64,4
3690930,0.54,-0.51,-0.69,0.98,0.3,-0.73,44.57,12.02,29.64,4
3690942,0.53,-0.51,-0.69,2.0,-1.64,-1.99,44.57,12.02,29.64,4
3690954,0.52,-0.51,-0.69,2.7,-2.32,-2.21,44.57,12.02,29.64,4
3690965,0.52,-0.52,-0.69,3.24,-2.57,-2.16,44.51,11.91,29.68,4
3690976,0.52,-0.53,-0.69,3.26,-1.41,-1.27,44.51,11.91,29.68,4
3690987,0.53,-0.53,-0.69,2.74,-0.54,-0.68,44.51,11.91,29.68,4
3690997,0.53,-0.53,-0.69,2.15,0.06,-0.26,44.51,11.91,29.68,4
3691007,0.53,-0.52,-0.69,1.62,0.34,-0.18,44.51,11.91,29.68,4
3691020,0.52,-0.52,-0.69,1.26,0.42,-0.36,44.41,11.91,29.81,4
3691031,0.52,-0.52,-0.68,1.36,0.57,-0.32,44.41,11.91,29.81,4
3691045,0.53,-0.52,-0.68,2.42,1.36,0.09,44.41,11.91,29.81,4
3691056,0.53,-0.52,-0.69,3.27,1.7,0.14,44.41,11.91,29.81,4
3691067,0.53,-0.52,-0.69,3.95,1.63,0.04,44.42,11.93,29.79,4
3691079,0.53,-0.52,-0.7,4.36,0.93,-0.17,44.42,11.93,29.79,4
3691091,0.53,-0.52,-0.7,4.06,0.79,-0.19,44.42,11.93,29.79,4
3691103,0.53,-0.52,-0.7,2.98,1.44,-0.16,44.42,11.93,29.79,4
3691115,0.53,-0.52,-0.7,2.69,1.98,-0.25,44.35,11.97,30.02,4
3691127,0.54,-0.52,-0.7,2.62,2.34,-0.5,44.35,11.97,30.02,4
3691138,0.54,-0.52,-0.7,2.69,2.18,-1.24,44.35,11.97,30.02,4
3691149,0.53,-0.52,-0.7,2.44,1.31,-1.75,44.35,11.97,30.02,4
3691162,0.52,-0.52,-0.7,1.84,0.2,-2.26,44.32,11.96,29.94,4
3691172,0.52,-0.52,-0.7,0.39,-1.4,-2.64,44.32,11.96,29.94,4
3691183,0.51,-0.52,-0.69,0.03,-1.6,-2.42,44.32,11.96,29.94,4
3691195,0.51,-0.52,-0.68,0.22,-1.37,-1.83,44.32,11.96,29.94,4
3691209,0.52,-0.53,-0.68,1.72,0.42,-0.22,44.32,11.96,29.94,4
3691220,0.52,-0.53,-0.69,2.65,1.23,0.41,44.41,11.87,30.11,4
3691232,0.53,-0.53,-0.69,3.6,2.41,1.0,44.41,11.87,30.11,4
3691243,0.53,-0.53,-0.7,3.49,2.52,0.93,44.41,11.87,30.11,4
3691255,0.53,-0.52,-0.7,3.02,2.21,0.58,44.41,11.87,30.11,4
3691267,0.52,-0.52,-0.7,1.69,0.43,-0.53,44.22,11.87,30.2,4
3691278,0.51,-0.52,-0.7,1.3,-0.42,-0.96,44.22,11.87,30.2,4
3691290,0.51,-0.52,-0.69,1.23,-1.08,-1.18,44.22,11.87,30.2,4
3691303,0.52,-0.52,-0.69,1.94,-1.34,-0.77,44.22,11.87,30.2,4
3691314,0.52,-0.52,-0.69,2.52,-0.82,-0.32,44.15,11.88,30.15,4
3691328,0.52,-0.52,-0.7,3.25,0.2,0.18,44.15,11.88,30.15,4
3691339,0.52,-0.52,-0.7,3.17,0.53,0.29,44.15,11.88,30.15,4
3691350,0.52,-0.52,-0.7,2.94,0.8,0.4,44.15,11.88,30.15,4
3691364,0.52,-0.52,-0.7,2.52,1.1,0.35,44.1,11.91,30.39,4
3691376,0.52,-0.52,-0.7,2.36,0.85,0.16,44.1,11.91,30.39,4
3691389,0.52,-0.52,-0.7,2.16,-0.13,-0.45,44.1,11.91,30.39,4
3691401,0.52,-0.52,-0.7,2.17,-0.42,-0.63,44.1,11.91,30.39,4
3691412,0.52,-0.52,-0.7,2.2,-0.49,-0.65,43.96,11.84,30.3,4
3691423,0.51,-0.52,-0.7,2.24,-0.38,-0.52,43.96,11.84,30.3,4
3691435,0.51,-0.52,-0.7,2.27,-0.3,-0.44,43.96,11.84,30.3,4
3691448,0.51,-0.52,-0.7,2.72,-0.24,-0.39,43.96,11.84,30.3,4
3691461,0.51,-0.52,-0.7,2.89,-0.27,-0.44,43.96,11.76,30.29,4
3691475,0.52,-0.52,-0.7,2.72,-0.34,-0.32,43.96,11.76,30.29,4
3691485,0.52,-0.52,-0.7,2.54,-0.33,-0.34,43.96,11.76,30.29,4
3691496,0.52,-0.52,-0.7,2.39,-0.53,-0.51,43.96,11.76,30.29,4
3691508,0.52,-0.52,-0.7,2.22,-1.06,-0.93,43.96,11.76,30.29,4
3691519,0.52,-0.52,-0.7,2.15,-1.24,-1.09,43.9,11.72,30.28,4
3691531,0.52,-0.52,-0.7,2.0,-1.28,-1.06,43.9,11.72,30.28,4
3691543,0.52,-0.52,-0.7,1.76,-0.94,-0.83,43.9,11.72,30.28,4
3691555,0.52,-0.52,-0.7,1.87,-0.78,-0.81,43.9,11.72,30.28,4
3691566,0.52,-0.52,-0.7,2.02,-0.68,-0.81,43.99,11.58,30.25,4
3691577,0.52,-0.52,-0.7,2.07,-0.74,-0.91,43.99,11.58,30.25,4
3691589,0.52,-0.52,-0.7,1.98,-1.03,-1.1,43.99,11.58,30.25,4
3691602,0.51,-0.52,-0.71,1.55,-1.92,-1.55,43.99,11.58,30.25,4
3691613,0.51,-0.52,-0.7,1.22,-2.21,-1.65,43.97,11.55,30.29,4
3691624,0.5,-0.52,-0.7,1.02,-2.23,-1.6,43.97,11.55,30.29,4
3691634,0.5,-0.52,-0.69,1.09,-1.85,-1.26,43.97,11.55,30.29,4
3691646,0.51,-0.52,-0.69,2.01,-0.19,0.09,43.97,11.55,30.29,4
3691657,0.52,-0.52,-0.69,2.65,0.58,0.58,43.97,11.55,30.29,4
3691668,0.52,-0.52,-0.7,3.15,0.94,0.73,43.88,11.57,30.01,4
3691680,0.52,-0.52,-0.71,3.29,0.69,0.3,43.88,11.57,30.01,4
3691692,0.52,-0.51,-0.71,2.99,0.43,-0.06,43.88,11.57,30.01,4
3691704,0.52,-0.51,-0.71,2.64,-0.2,-0.6,43.88,11.57,30.01,4
3691716,0.51,-0.51,-0.71,2.76,-0.56,-0.87,43.88,11.57,30.11,4
3691728,0.51,-0.51,-0.71,2.93,-1.01,-1.11,43.88,11.57,30.11,4
3691740,0.51,-0.52,-0.71,3.15,-1.23,-1.35,43.88,11.57,30.11,4
3691752,0.51,-0.52,-0.71,2.86,-0.99,-1.34,43.88,11.57,30.11,4
3691763,0.51,-0.53,-0.71,2.28,-0.69,-1.19,43.76,11.56,30.29,4
3691775,0.51,-0.53,-0.7,0.91,-0.38,-0.96,43.76,11.56,30.29,4
3691787,0.5,-0.53,-0.7,0.51,-0.3,-0.84,43.76,11.56,30.29,4
3691797,0.5,-0.52,-0.7,0.53,-0.23,-0.66,43.76,11.56,30.29,4
3691808,0.5,-0.52,-0.7,1.39,-0.37,-0.34,43.76,11.56,30.29,4
3691819,0.51,-0.52,-0.7,1.9,-0.74,-0.32,43.73,11.57,30.36,4
3691831,0.51,-0.52,-0.7,2.36,-1.11,-0.4,43.73,11.57,30.36,4
3691843,0.52,-0.52,-0.7,2.85,-1.33,-0.42,43.73,11.57,30.36,4
3691855,0.52,-0.52,-0.7,2.89,-1.33,-0.47,43.73,11.57,30.36,4
3691866,0.52,-0.52,-0.71,2.79,-1.47,-0.66,43.7,11.45,30.53,4
3691878,0.51,-0.52,-0.71,2.32,-1.73,-1.14,43.7,11.45,30.53,4
3691890,0.51,-0.52,-0.7,2.02,-1.72,-1.18,43.7,11.45,30.53,4
3691902,0.51,-0.52,-0.7,1.77,-1.5,-0.66,43.7,11.45,30.53,4
3691914,0.51,-0.52,-0.7,1.91,-1.33,-0.44,43.71,11.51,30.49,4
3691926,0.51,-0.52,-0.7,2.08,-1.29,-0.37,43.71,11.51,30.49,4
3691938,0.51,-0.52,-0.7,1.93,-1.4,-0.27,43.71,11.51,30.49,4
3691950,0.51,-0.52,-0.71,1.76,-1.44,-0.24,43.71,11.51,30.49,4
3691961,0.51,-0.52,-0.71,1.62,-1.53,-0.32,43.7,11.64,30.69,4
3691973,0.51,-0.52,-0.7,1.25,-1.88,-0.58,43.7,11.64,30.69,4
3691985,0.51,-0.52,-0.7,1.14,-1.95,-0.64,43.7,11.64,30.69,4
3691998,0.51,-0.52,-0.7,1.45,-1.19,-0.14,43.7,11.64,30.69,4
3692011,0.51,-0.52,-0.7,1.95,-0.65,0.19,43.75,11.75,30.8,4
3692024,0.51,-0.52,-0.7,2.88,-0.3,0.51,43.75,11.75,30.8,4
3692036,0.51,-0.52,-0.71,3.01,-0.35,0.4,43.75,11.75,30.8,4
3692048,0.51,-0.52,-0.71,2.86,-0.52,0.25,43.75,11.75,30.8,4
3692060,0.51,-0.52,-0.71,2.53,-0.8,0.06,43.83,11.81,30.73,4
3692072,0.51,-0.52,-0.71,2.08,-1.16,-0.26,43.83,11.81,30.73,4
3692083,0.51,-0.52,-0.71,1.35,-1.2,-0.58,43.83,11.81,30.73,4
3692094,0.51,-0.52,-0.7,1.35,-0.88,-0.45,43.83,11.81,30.73,4
3692104,0.51,-0.52,-0.7,1.52,-0.62,-0.39,43.83,11.81,30.73,4
3692115,0.51,-0.52,-0.7,1.78,-0.49,-0.37,43.76,11.77,30.64,4
3692127,0.51,-0.52,-0.7,2.09,-0.47,-0.35,43.76,11.77,30.64,4
3692137,0.51,-0.52,-0.7,2.04,-0.5,-0.29,43.76,11.77,30.64,4
3692147,0.51,-0.52,-0.7,1.92,-0.61,-0.21,43.76,11.77,30.64,4
3692157,0.51,-0.52,-0.7,1.79,-0.8,-0.24,43.76,11.77,30.64,4
3692169,0.51,-0.52,-0.7,1.88,-1.12,-0.55,43.86,11.83,30.69,4
3692180,0.51,-0.52,-0.7,2.05,-1.25,-0.74,43.86,11.83,30.69,4
3692190,0.51,-0.51,-0.7,2.27,-1.47,-0.83,43.86,11.83,30.69,4
3692200,0.51,-0.51,-0.71,2.49,-1.73,-0.89,43.86,11.83,30.69,4
3692211,0.5,-0.51,-0.71,2.62,-1.86,-0.83,43.86,11.82,30.66,4
3692222,0.51,-0.52,-0.71,2.66,-1.73,-0.54,43.86,11.82,30.66,4
3692234,0.51,-0.52,-0.71,2.43,-1.38,-0.33,43.86,11.82,30.66,4
3692247,0.51,-0.52,-0.71,1.43,-1.49,-0.45,43.86,11.82,30.66,4
3692260,0.51,-0.52,-0.71,0.78,-1.69,-0.58,43.95,11.83,30.77,4
3692271,0.51,-0.52,-0.71,-0.03,-1.73,-0.6,43.95,11.83,30.77,4
3692282,0.51,-0.52,-0.7,-0.04,-1.62,-0.66,43.95,11.83,30.77,4
3692294,0.51,-0.52,-0.7,0.26,-1.57,-0.71,43.95,11.83,30.77,4
3692308,0.51,-0.52,-0.7,1.35,-1.88,-1.01,43.95,11.83,30.77,4
3692319,0.51,-0.52,-0.7,1.77,-2.13,-1.15,43.81,11.76,30.74,4
3692331,0.51,-0.52,-0.7,1.94,-2.19,-1.18,43.81,11.76,30.74,4
3692342,0.5,-0.53,-0.7,1.87,-2.02,-0.95,43.81,11.76,30.74,4
3692354,0.5,-0.52,-0.7,1.92,-1.64,-0.56,43.81,11.76,30.74,4
3692366,0.5,-0.52,-0.7,2.49,-0.51,0.37,43.8,11.78,30.69,4
3692377,0.51,-0.52,-0.7,2.83,-0.12,0.56,43.8,11.78,30.69,4
3692388,0.51,-0.52,-0.71,2.96,0.02,0.58,43.8,11.78,30.69,4
3692402,0.51,-0.52,-0.71,2.48,-0.23,0.36,43.8,11.78,30.69,4
3692413,0.52,-0.52,-0.71,2.04,-0.31,0.14,43.85,11.77,30.56,4
3692425,0.52,-0.52,-0.71,1.63,-0.65,-0.28,43.85,11.77,30.56,4
3692437,0.51,-0.52,-0.7,1.1,-1.66,-1.14,43.85,11.77,30.56,4
3692448,0.51,-0.52,-0.7,1.06,-1.99,-1.42,43.85,11.77,30.56,4
3692459,0.5,-0.52,-0.7,1.16,-2.09,-1.48,43.87,11.8,30.49,4
3692470,0.5,-0.52,-0.7,1.42,-1.97,-1.28,43.87,11.8,30.49,4
3692482,0.5,-0.52,-0.7,1.79,-1.48,-0.55,43.87,11.8,30.49,4
3692495,0.5,-0.52,-0.7,2.98,-0.12,0.66,43.87,11.8,30.49,4
3692505,0.51,-0.52,-0.7,3.25,0.2,0.96,43.87,11.8,30.49,4
3692516,0.51,-0.52,-0.71,3.24,0.26,1.06,43.89,11.74,30.44,4
3692529,0.51,-0.52,-0.71,2.33,-0.41,0.42,43.89,11.74,30.44,4
3692540,0.51,-0.52,-0.71,1.72,-1.03,-0.12,43.89,11.74,30.44,4
3692552,0.51,-0.52,-0.71,1.27,-1.56,-0.57,43.89,11.74,30.44,4
3692565,0.51,-0.52,-0.71,1.14,-2.12,-1.03,43.73,11.77,30.26,4
3692576,0.51,-0.52,-0.7,1.45,-2.11,-1.1,43.73,11.77,30.26,4
3692589,0.51,-0.52,-0.7,2.08,-1.92,-1.02,43.73,11.77,30.26,4
3692600,0.51,-0.52,-0.71,2.09,-2.12,-1.16,43.73,11.77,30.26,4
3692611,0.51,-0.52,-0.71,1.88,-2.4,-1.36,43.75,11.79,30.25,4
3692625,0.51,-0.52,-0.71,0.73,-3.22,-1.81,43.75,11.79,30.25,4
3692637,0.51,-0.52,-0.71,0.12,-3.62,-1.96,43.75,11.79,30.25,4
3692649,0.51,-0.52,-0.7,-0.35,-4.26,-2.08,43.75,11.79,30.25,4
3692661,0.51,-0.52,-0.7,-0.1,-4.4,-2.29,43.83,11.84,30.3,4
3692673,0.51,-0.52,-0.7,0.15,-4.58,-2.65,43.83,11.84,30.3,4
3692684,0.51,-0.53,-0.7,0.3,-5.25,-2.99,43.83,11.84,30.3,4
3692695,0.51,-0.53,-0.7,0.45,-5.19,-3.17,43.83,11.84,30.3,4
3692705,0.51,-0.53,-0.7,0.54,-5.21,-3.36,43.83,11.84,30.3,4
3692716,0.51,-0.52,-0.7,0.39,-5.5,-3.56,43.85,11.91,30.2,4
3692727,0.51,-0.52,-0.7,0.06,-6.15,-4.06,43.85,11.91,30.2,4
3692738,0.51,-0.52,-0.7,-0.08,-6.3,-4.28,43.85,11.91,30.2,4
3692749,0.5,-0.52,-0.7,-0.19,-6.19,-4.14,43.85,11.91,30.2,4
3692760,0.5,-0.53,-0.69,-0.23,-5.77,-3.78,43.96,11.96,30.2,4
3692772,0.51,-0.53,-0.69,-0.17,-5.33,-3.39,43.96,11.96,30.2,4
3692784,0.51,-0.53,-0.69,-0.02,-4.85,-2.94,43.96,11.96,30.2,4
3692797,0.51,-0.53,-0.7,0.34,-3.86,-2.08,43.96,11.96,30.2,4
3692810,0.52,-0.53,-0.7,0.4,-3.59,-2.05,43.87,11.91,30.02,4
3692821,0.52,-0.53,-0.7,-0.56,-4.35,-2.63,43.87,11.91,30.02,4
3692832,0.52,-0.53,-0.7,-1.31,-4.92,-3.17,43.87,11.91,30.02,4
3692844,0.51,-0.53,-0.69,-1.87,-5.39,-3.6,43.87,11.91,30.02,4
3692855,0.51,-0.54,-0.69,-1.83,-5.42,-3.74,43.87,11.91,30.02,4
3692867,0.51,-0.53,-0.68,-1.32,-5.18,-3.52,44.03,11.93,30.13,4
3692879,0.51,-0.53,-0.68,-0.62,-4.89,-3.26,44.03,11.93,30.13,4
3692891,0.51,-0.54,-0.69,0.78,-4.34,-2.51,44.03,11.93,30.13,4
3692903,0.51,-0.54,-0.69,1.14,-4.08,-2.04,44.03,11.93,30.13,4
3692914,0.51,-0.54,-0.69,1.19,-3.71,-1.6,44.15,12.1,30.07,4
3692926,0.51,-0.54,-0.69,0.64,-2.66,-0.84,44.15,12.1,30.07,4
3692938,0.51,-0.54,-0.69,0.07,-2.45,-0.68,44.15,12.1,30.07,4
3692948,0.51,-0.54,-0.69,-0.4,-2.4,-0.58,44.15,12.1,30.07,4
3692961,0.51,-0.54,-0.68,-0.58,-2.0,-0.32,44.33,12.2,30.13,4
3692972,0.51,-0.54,-0.68,-0.47,-1.95,-0.2,44.33,12.2,30.13,4
3692983,0.52,-0.54,-0.68,-0.46,-2.3,-0.33,44.33,12.2,30.13,4
3692995,0.52,-0.54,-0.68,-0.41,-3.16,-0.85,44.33,12.2,30.13,4
3693007,0.52,-0.54,-0.68,-0.44,-3.72,-1.21,44.33,12.2,30.13,4
3693020,0.51,-0.54,-0.68,-0.67,-4.31,-1.56,44.29,12.13,30.13,4
3693032,0.51,-0.54,-0.68,-0.56,-4.07,-1.42,44.29,12.13,30.13,4
3693042,0.51,-0.54,-0.68,-0.09,-3.62,-1.06,44.29,12.13,30.13,4
3693053,0.51,-0.54,-0.68,1.41,-2.48,-0.3,44.29,12.13,30.13,4
3693065,0.51,-0.54,-0.68,1.8,-2.11,0.05,44.33,12.2,30.14,4
3693076,0.52,-0.54,-0.69,1.86,-1.76,0.3,44.33,12.2,30.14,4
3693087,0.52,-0.55,-0.69,1.13,-1.23,0.56,44.33,12.2,30.14,4
3693098,0.52,-0.55,-0.69,0.62,-1.11,0.55,44.33,12.2,30.14,4
3693109,0.52,-0.55,-0.68,0.23,-1.09,0.43,44.39,12.23,30.26,4
3693123,0.52,-0.55,-0.68,-0.06,-1.42,-0.1,44.39,12.23,30.26,4
3693135,0.52,-0.55,-0.68,0.13,-1.53,-0.33,44.39,12.23,30.26,4
3693147,0.52,-0.55,-0.67,0.96,-1.73,-0.51,44.39,12.23,30.26,4
3693159,0.51,-0.54,-0.68,1.56,-1.79,-0.54,44.4,12.3,30.15,4
3693171,0.51,-0.54,-0.68,2.07,-1.82,-0.59,44.4,12.3,30.15,4
3693183,0.51,-0.54,-0.68,2.81,-1.4,-0.36,44.4,12.3,30.15,4
3693195,0.51,-0.54,-0.68,3.06,-0.9,0.06,44.4,12.3,30.15,4
3693209,0.51,-0.54,-0.68,3.33,-0.0,0.92,44.31,12.39,29.94,4
3693220,0.51,-0.54,-0.68,3.27,0.2,1.11,44.31,12.39,29.94,4
3693232,0.51,-0.54,-0.68,2.98,0.25,1.12,44.31,12.39,29.94,4
3693243,0.52,-0.54,-0.68,1.99,0.06,0.94,44.31,12.39,29.94,4
3693255,0.52,-0.54,-0.68,1.49,-0.15,0.7,44.31,12.39,29.94,4
3693266,0.52,-0.54,-0.68,1.16,-0.54,0.32,44.3,12.41,29.85,4
3693278,0.52,-0.54,-0.68,1.02,-1.39,-0.51,44.3,12.41,29.85,4
3693290,0.52,-0.54,-0.68,1.09,-1.8,-0.76,44.3,12.41,29.85,4
3693303,0.51,-0.55,-0.67,1.48,-1.83,-0.7,44.3,12.41,29.85,4
3693314,0.51,-0.54,-0.67,1.91,-1.45,-0.4,44.29,12.63,29.74,4
3693325,0.51,-0.54,-0.68,2.42,-1.02,0.01,44.29,12.63,29.74,4
3693335,0.51,-0.54,-0.68,2.95,-0.57,0.43,44.29,12.63,29.74,4
3693346,0.51,-0.54,-0.68,4.04,0.64,1.21,44.29,12.63,29.74,4
3693359,0.52,-0.54,-0.69,4.17,1.01,1.44,44.27,12.72,29.77,4
3693372,0.52,-0.54,-0.69,3.31,0.74,1.12,44.27,12.72,29.77,4
3693384,0.52,-0.54,-0.69,2.51,0.35,0.74,44.27,12.72,29.77,4
3693398,0.51,-0.54,-0.68,1.51,-0.19,0.13,44.27,12.72,29.77,4
3693408,0.51,-0.54,-0.68,1.47,-0.34,-0.02,44.25,12.68,29.52,4
3693420,0.51,-0.54,-0.68,1.67,-0.53,-0.03,44.25,12.68,29.52,4
3693432,0.51,-0.54,-0.68,2.53,-0.7,0.13,44.25,12.68,29.52,4
3693444,0.52,-0.54,-0.68,2.87,-0.79,0.2,44.25,12.68,29.52,4
3693454,0.52,-0.54,-0.69,2.91,-0.84,0.11,44.25,12.68,29.52,4
3693466,0.52,-0.54,-0.69,2.02,-1.31,-0.51,44.38,12.78,29.52,4
3693477,0.51,-0.54,-0.69,1.25,-1.76,-0.91,44.38,12.78,29.52,4
3693487,0.51,-0.54,-0.68,0.68,-1.95,-1.07,44.38,12.78,29.52,4
3693497,0.51,-0.54,-0.68,0.52,-1.83,-0.88,44.38,12.78,29.52,4
3693507,0.51,-0.54,-0.68,0.9,-1.49,-0.47,44.38,12.78,29.52,4
3693520,0.51,-0.54,-0.68,2.43,-1.38,-0.26,44.36,12.79,29.54,4
3693531,0.51,-0.54,-0.69,2.85,-1.51,-0.44,44.36,12.79,29.54,4
3693542,0.51,-0.54,-0.69,2.28,-1.79,-0.69,44.36,12.79,29.54,4
3693553,0.51,-0.55,-0.69,1.63,-1.67,-0.66,44.36,12.79,29.54,4
3693564,0.51,-0.54,-0.68,1.12,-1.49,-0.57,44.28,12.81,29.59,4
3693578,0.51,-0.54,-0.68,1.19,-1.34,-0.38,44.28,12.81,29.59,4
3693590,0.51,-0.54,-0.68,1.75,-1.33,-0.23,44.28,12.81,29.59,4
3693602,0.51,-0.54,-0.68,2.84,-1.0,0.19,44.28,12.81,29.59,4
3693615,0.51,-0.54,-0.69,2.93,-1.01,0.32,44.14,12.88,29.75,4
3693625,0.51,-0.54,-0.69,2.67,-1.19,0.31,44.14,12.88,29.75,4
3693635,0.51,-0.54,-0.69,2.26,-1.26,0.27,44.14,12.88,29.75,4
3693646,0.51,-0.54,-0.69,1.68,-1.26,0.2,44.14,12.88,29.75,4
3693657,0.51,-0.54,-0.69,1.56,-1.29,0.19,44.1,12.86,29.87,4
3693668,0.51,-0.54,-0.68,1.56,-1.32,0.2,44.1,12.86,29.87,4
3693681,0.51,-0.54,-0.68,1.33,-1.35,0.16,44.1,12.86,29.87,4
3693693,0.51,-0.54,-0.68,1.29,-1.41,0.1,44.1,12.86,29.87,4
3693706,0.51,-0.54,-0.68,1.49,-1.46,-0.06,44.1,12.86,29.87,4
3693718,0.51,-0.54,-0.68,1.59,-1.45,-0.09,44.14,12.82,29.89,4
3693730,0.51,-0.54,-0.68,1.66,-1.38,-0.1,44.14,12.82,29.89,4
3693741,0.51,-0.54,-0.68,1.96,-1.04,0.08,44.14,12.82,29.89,4
3693753,0.51,-0.54,-0.68,2.05,-0.88,0.27,44.14,12.82,29.89,4
3693764,0.51,-0.54,-0.68,2.19,-0.79,0.38,44.1,12.82,30.0,4
3693776,0.51,-0.54,-0.69,2.44,-0.76,0.3,44.1,12.82,30.0,4
3693788,0.51,-0.54,-0.69,2.4,-0.77,0.2,44.1,12.82,30.0,4
3693801,0.51,-0.54,-0.69,2.04,-0.73,0.23,44.1,12.82,30.0,4
3693812,0.51,-0.54,-0.69,1.95,-0.69,0.29,44.04,12.82,29.99,4
3693823,0.51,-0.54,-0.69,1.98,-0.65,0.37,44.04,12.82,29.99,4
3693833,0.51,-0.54,-0.68,2.04,-0.5,0.51,44.04,12.82,29.99,4
3693844,0.51,-0.54,-0.68,2.29,-0.11,0.89,44.04,12.82,29.99,4
3693856,0.51,-0.54,-0.68,2.53,0.15,1.0,44.04,12.82,29.99,4
3693867,0.51,-0.54,-0.68,2.74,0.37,1.08,44.0,12.85,29.9,4
3693879,0.51,-0.54,-0.68,2.82,0.08,1.45,44.0,12.85,29.9,4
3693891,0.51,-0.54,-0.68,3.03,0.12,1.54,44.0,12.85,29.9,4
3693903,0.51,-0.54,-0.69,3.31,0.43,1.94,44.0,12.85,29.9,4
3693915,0.52,-0.54,-0.69,3.32,0.51,1.99,44.04,12.79,29.99,4
3693926,0.52,-0.54,-0.69,3.2,0.38,1.82,44.04,12.79,29.99,4
3693938,0.52,-0.54,-0.69,2.23,-0.51,0.83,44.04,12.79,29.99,4
3693949,0.52,-0.54,-0.69,1.56,-0.95,0.33,44.04,12.79,29.99,4
3693960,0.52,-0.54,-0.69,1.04,-1.24,-0.04,44.06,12.74,29.87,4
3693970,0.51,-0.54,-0.69,0.74,-1.41,-0.25,44.06,12.74,29.87,4
3693982,0.51,-0.54,-0.68,1.11,-1.77,-0.52,44.06,12.74,29.87,4
3693992,0.51,-0.54,-0.69,1.58,-1.93,-0.57,44.06,12.74,29.87,4
3694002,0.51,-0.54,-0.69,1.97,-1.95,-0.5,44.06,12.74,29.87,4
3694013,0.51,-0.54,-0.69,2.18,-1.75,-0.27,44.16,12.95,29.8,4
3694025,0.51,-0.54,-0.69,2.15,-1.11,0.15,44.16,12.95,29.8,4
3694036,0.51,-0.54,-0.69,2.01,-0.93,0.18,44.16,12.95,29.8,4
3694047,0.51,-0.54,-0.69,1.84,-0.93,0.13,44.16,12.95,29.8,4
3694058,0.51,-0.54,-0.69,1.5,-1.03,0.09,44.11,12.94,29.72,4
3694070,0.51,-0.54,-0.69,1.47,-1.05,0.15,44.11,12.94,29.72,4
3694082,0.51,-0.54,-0.69,1.52,-1.02,0.23,44.11,12.94,29.72,4
3694093,0.51,-0.54,-0.68,2.06,-0.96,0.44,44.11,12.94,29.72,4
3694104,0.51,-0.54,-0.69,2.38,-0.93,0.55,44.11,12.94,29.72,4
3694114,0.51,-0.54,-0.69,2.64,-0.87,0.65,44.1,12.86,29.61,4
3694125,0.51,-0.54,-0.69,2.77,-0.87,0.71,44.1,12.86,29.61,4
3694136,0.51,-0.54,-0.69,2.57,-0.74,0.7,44.1,12.86,29.61,4
3694147,0.52,-0.54,-0.69,2.36,-0.65,0.67,44.1,12.86,29.61,4
3694157,0.52,-0.54,-0.69,2.15,-0.67,0.53,44.05,12.83,29.77,4
3694168,0.52,-0.54,-0.69,1.88,-0.83,0.35,44.05,12.83,29.77,4
3694179,0.51,-0.54,-0.69,1.34,-1.11,0.02,44.05,12.83,29.77,4
3694190,0.51,-0.54,-0.69,1.3,-1.12,-0.04,44.05,12.83,29.77,4
3694200,0.51,-0.53,-0.69,1.42,-1.09,-0.06,44.05,12.83,29.77,4
3694211,0.51,-0.53,-0.69,1.7,-1.12,-0.07,44.07,12.77,29.77,4
3694223,0.51,-0.53,-0.69,2.25,-1.35,-0.23,44.07,12.77,29.77,4
3694233,0.51,-0.54,-0.69,2.28,-1.46,-0.35,44.07,12.77,29.77,4
3694243,0.51,-0.54,-0.69,2.16,-1.55,-0.38,44.07,12.77,29.77,4
3694257,0.51,-0.54,-0.69,1.63,-1.41,-0.35,44.05,12.71,29.74,4
3694269,0.51,-0.54,-0.69,1.42,-1.37,-0.3,44.05,12.71,29.74,4
3694283,0.51,-0.54,-0.68,1.24,-1.29,-0.23,44.05,12.71,29.74,4
3694294,0.51,-0.54,-0.68,1.33,-1.23,-0.11,44.05,12.71,29.74,4
3694309,0.51,-0.54,-0.68,1.9,-0.97,0.18,44.14,12.72,29.87,4
3694321,0.51,-0.54,-0.69,2.29,-0.85,0.34,44.14,12.72,29.87,4
3694334,0.51,-0.53,-0.69,3.06,-0.62,0.45,44.14,12.72,29.87,4
3694345,0.52,-0.53,-0.7,3.19,-0.78,0.3,44.14,12.72,29.87,4
3694355,0.52,-0.53,-0.7,3.04,-1.09,-0.01,44.14,12.72,29.87,4
3694367,0.51,-0.53,-0.7,1.83,-1.52,-0.5,44.12,12.7,29.87,4
3694378,0.51,-0.54,-0.69,1.08,-1.59,-0.66,44.12,12.7,29.87,4
3694389,0.51,-0.54,-0.69,0.56,-1.6,-0.67,44.12,12.7,29.87,4
3694403,0.51,-0.54,-0.69,0.42,-1.6,-0.57,44.12,12.7,29.87,4
3694414,0.51,-0.54,-0.68,0.65,-1.64,-0.53,44.15,12.74,29.81,4
3694426,0.51,-0.54,-0.69,0.94,-1.68,-0.48,44.15,12.74,29.81,4
3694438,0.51,-0.54,-0.69,1.38,-1.75,-0.43,44.15,12.74,29.81,4
3694448,0.51,-0.54,-0.69,1.48,-1.86,-0.46,44.15,12.74,29.81,4
3694459,0.51,-0.54,-0.69,1.51,-1.94,-0.43,44.1,12.72,29.76,4
3694470,0.51,-0.54,-0.68,1.75,-1.48,-0.05,44.1,12.72,29.76,4
3694481,0.51,-0.54,-0.68,1.97,-1.07,0.16,44.1,12.72,29.76,4
3694493,0.51,-0.54,-0.69,2.18,-0.82,0.38,44.1,12.72,29.76,4
3694503,0.51,-0.54,-0.69,2.28,-0.68,0.57,44.1,12.72,29.76,4
3694516,0.51,-0.53,-0.69,2.19,-0.53,0.69,43.97,12.8,29.72,4
3694526,0.51,-0.53,-0.69,2.13,-0.54,0.57,43.97,12.8,29.72,4
3694537,0.52,-0.53,-0.69,2.05,-0.68,0.39,43.97,12.8,29.72,4
3694549,0.52,-0.53,-0.69,2.05,-1.31,-0.1,43.97,12.8,29.72,4
3694560,0.51,-0.53,-0.69,1.96,-1.53,-0.35,44.06,12.85,29.54,4
3694573,0.51,-0.54,-0.69,1.48,-1.78,-0.61,44.06,12.85,29.54,4
3694584,0.51,-0.54,-0.69,1.25,-1.66,-0.65,44.06,12.85,29.54,4
3694596,0.51,-0.54,-0.69,1.13,-1.52,-0.58,44.06,12.85,29.54,4
3694607,0.51,-0.54,-0.69,1.15,-1.47,-0.5,44.04,12.97,29.69,4
3694618,0.51,-0.54,-0.69,1.17,-1.35,-0.42,44.04,12.97,29.69,4
3694628,0.51,-0.54,-0.69,1.26,-1.06,-0.3,44.04,12.97,29.69,4
3694638,0.51,-0.53,-0.69,1.48,-1.16,-0.35,44.04,12.97,29.69,4
3694648,0.51,-0.54,-0.69,1.71,-1.38,-0.52,44.04,12.97,29.69,4
3694661,0.51,-0.54,-0.69,1.96,-1.53,-0.55,44.08,12.93,29.57,4
3694671,0.52,-0.54,-0.69,2.0,-1.5,-0.59,44.08,12.93,29.57,4
3694681,0.51,-0.54,-0.69,1.88,-1.53,-0.82,44.08,12.93,29.57,4
3694694,0.51,-0.54,-0.69,1.2,-1.82,-1.15,44.08,12.93,29.57,4
3694707,0.51,-0.54,-0.69,0.99,-1.79,-1.14,44.03,12.95,29.4,4
3694721,0.51,-0.54,-0.69,0.96,-1.67,-1.01,44.03,12.95,29.4,4
3694731,0.51,-0.54,-0.68,1.02,-1.6,-0.91,44.03,12.95,29.4,4
3694741,0.51,-0.54,-0.68,1.24,-1.43,-0.6,44.03,12.95,29.4,4
3694751,0.51,-0.54,-0.68,1.57,-1.16,-0.29,44.03,12.95,29.4,4
3694764,0.51,-0.54,-0.69,2.17,-0.9,-0.16,43.92,13.04,29.54,4
3694774,0.51,-0.54,-0.69,2.23,-1.04,-0.35,43.92,13.04,29.54,4
3694784,0.51,-0.54,-0.69,2.13,-1.27,-0.57,43.92,13.04,29.54,4
3694794,0.51,-0.54,-0.69,1.97,-1.45,-0.7,43.92,13.04,29.54,4
3694806,0.51,-0.54,-0.69,1.59,-1.59,-0.65,43.9,13.03,29.55,4
3694817,0.51,-0.54,-0.69,1.55,-1.52,-0.48,43.9,13.03,29.55,4
3694828,0.51,-0.54,-0.69,1.65,-1.35,-0.29,43.9,13.03,29.55,4
3694838,0.51,-0.54,-0.69,1.81,-1.13,-0.05,43.9,13.03,29.55,4
3694850,0.52,-0.54,-0.69,2.19,-0.47,0.52,43.9,13.03,29.55,4
3694861,0.52,-0.54,-0.69,2.29,-0.35,0.52,43.96,13.07,29.44,4
3694873,0.52,-0.54,-0.69,1.92,-0.89,-0.12,43.96,13.07,29.44,4
3694885,0.51,-0.54,-0.69,1.66,-1.26,-0.48,43.96,13.07,29.44,4
3694896,0.51,-0.54,-0.69,1.46,-1.56,-0.72,43.96,13.07,29.44,4
3694909,0.51,-0.54,-0.69,1.47,-1.65,-0.68,43.92,12.98,29.65,4
3694921,0.51,-0.54,-0.68,1.8,-1.45,-0.46,43.92,12.98,29.65,4
3694934,0.51,-0.54,-0.69,2.41,-1.04,-0.21,43.92,12.98,29.65,4
3694945,0.51,-0.54,-0.69,2.43,-0.96,-0.18,43.92,12.98,29.65,4
3694956,0.51,-0.54,-0.69,2.23,-0.95,-0.17,43.86,12.87,29.56,4
3694970,0.51,-0.54,-0.69,1.62,-1.19,-0.28,43.86,12.87,29.56,4
3694980,0.51,-0.54,-0.69,1.4,-1.38,-0.42,43.86,12.87,29.56,4
3694990,0.51,-0.54,-0.69,1.39,-1.64,-0.59,43.86,12.87,29.56,4
3695002,0.51,-0.54,-0.69,1.72,-1.77,-0.67,43.86,12.87,29.56,4
3695014,0.51,-0.54,-0.69,1.92,-1.67,-0.54,43.85,12.88,29.56,4
3695026,0.51,-0.54,-0.69,2.08,-1.54,-0.41,43.85,12.88,29.56,4
3695038,0.5,-0.54,-0.69,2.24,-1.35,-0.11,43.85,12.88,29.56,4
3695050,0.51,-0.54,-0.69,2.39,-0.95,0.13,43.85,12.88,29.56,4
3695061,0.51,-0.54,-0.69,2.4,-0.6,0.37,43.92,12.9,29.84,4
3695073,0.52,-0.53,-0.69,2.0,-0.64,0.48,43.92,12.9,29.84,4
3695085,0.52,-0.54,-0.69,1.8,-0.91,0.18,43.92,12.9,29.84,4
3695098,0.51,-0.54,-0.69,1.13,-1.5,-0.43,43.92,12.9,29.84,4
3695109,0.51,-0.54,-0.69,0.78,-1.74,-0.56,43.97,12.87,29.79,4
3695120,0.51,-0.54,-0.69,0.69,-1.88,-0.59,43.97,12.87,29.79,4
3695133,0.51,-0.54,-0.69,1.15,-1.95,-0.73,43.97,12.87,29.79,4
3695145,0.51,-0.54,-0.69,1.36,-2.17,-0.89,43.97,12.87,29.79,4
3695156,0.5,-0.54,-0.69,1.38,-2.28,-1.02,43.98,12.81,29.73,4
3695167,0.5,-0.55,-0.69,1.26,-2.28,-0.95,43.98,12.81,29.73,4
3695179,0.51,-0.55,-0.68,1.09,-1.84,-0.47,43.98,12.81,29.73,4
3695193,0.51,-0.54,-0.69,1.78,-0.98,0.38,43.98,12.81,29.73,4
3695203,0.51,-0.54,-0.69,2.28,-0.81,0.47,43.98,12.81,29.73,4
3695214,0.51,-0.54,-0.69,2.58,-0.93,0.3,44.02,12.73,29.58,4
3695224,0.51,-0.54,-0.69,2.52,-1.21,0.03,44.02,12.73,29.58,4
3695236,0.51,-0.54,-0.69,1.71,-1.61,-0.25,44.02,12.73,29.58,4
3695246,0.51,-0.54,-0.69,1.39,-1.7,-0.29,44.02,12.73,29.58,4
3695257,0.51,-0.54,-0.69,1.28,-1.65,-0.17,44.13,12.67,29.74,4
3695267,0.51,-0.54,-0.69,1.51,-1.46,0.0,44.13,12.67,29.74,4
3695279,0.51,-0.54,-0.69,2.22,-0.93,0.17,44.13,12.67,29.74,4
3695289,0.51,-0.54,-0.69,2.27,-0.86,0.24,44.13,12.67,29.74,4
3695299,0.51,-0.54,-0.69,2.03,-0.95,0.23,44.13,12.67,29.74,4
3695310,0.51,-0.54,-0.69,1.62,-1.05,0.22,44.1,12.57,29.86,4
3695322,0.51,-0.54,-0.69,1.08,-0.97,0.37,44.1,12.57,29.86,4
3695332,0.51,-0.54,-0.69,1.24,-0.92,0.31,44.1,12.57,29.86,4
3695342,0.51,-0.54,-0.69,1.57,-0.96,0.22,44.1,12.57,29.86,4
3695352,0.51,-0.54,-0.69,1.88,-1.08,0.1,44.1,12.57,29.86,4
3695365,0.51,-0.54,-0.69,2.13,-1.37,-0.13,44.03,12.61,29.85,4
3695375,0.51,-0.54,-0.69,2.09,-1.46,-0.14,44.03,12.61,29.85,4
3695386,0.51,-0.54,-0.69,2.01,-1.48,-0.09,44.03,12.61,29.85,4
3695399,0.51,-0.54,-0.69,2.09,-1.39,-0.03,44.03,12.61,29.85,4
3695410,0.51,-0.54,-0.69,2.1,-1.31,-0.12,44.17,12.62,29.93,4
3695421,0.51,-0.54,-0.69,2.0,-1.28,-0.2,44.17,12.62,29.93,4
3695433,0.51,-0.54,-0.69,1.48,-1.44,-0.39,44.17,12.62,29.93,4
3695444,0.51,-0.54,-0.69,1.23,-1.5,-0.48,44.17,12.62,29.93,4
3695454,0.51,-0.54,-0.69,1.1,-1.44,-0.45,44.17,12.62,29.93,4
3695465,0.51,-0.54,-0.69,1.11,-1.35,-0.37,44.06,12.65,29.85,4
3695477,0.51,-0.54,-0.68,1.44,-1.1,-0.09,44.06,12.65,29.85,4
3695489,0.51,-0.54,-0.69,1.74,-0.92,0.14,44.06,12.65,29.85,4
3695499,0.51,-0.54,-0.69,2.05,-0.71,0.39,44.06,12.65,29.85,4
3695512,0.51,-0.54,-0.69,2.29,-0.57,0.6,44.02,12.66,30.01,4
3695522,0.51,-0.54,-0.69,2.19,-0.66,0.48,44.02,12.66,30.01,4
3695532,0.51,-0.54,-0.69,2.02,-0.76,0.27,44.02,12.66,30.01,4
3695542,0.51,-0.54,-0.69,1.85,-0.97,0.13,44.02,12.66,30.01,4
3695555,0.51,-0.54,-0.69,1.77,-1.16,0.03,43.97,12.71,29.71,4
3695565,0.51,-0.54,-0.69,1.89,-1.14,0.12,43.97,12.71,29.71,4
3695575,0.51,-0.54,-0.69,2.07,-1.07,0.19,43.97,12.71,29.71,4
3695585,0.51,-0.54,-0.69,2.18,-1.05,0.19,43.97,12.71,29.71,4
3695597,0.51,-0.54,-0.69,2.24,-0.96,0.22,43.97,12.71,29.71,4
3695608,0.51,-0.54,-0.69,2.11,-1.03,0.09,44.08,12.79,29.81,4
3695618,0.51,-0.54,-0.69,1.86,-1.26,-0.14,44.08,12.79,29.81,4
3695631,0.51,-0.54,-0.69,1.21,-1.84,-0.69,44.08,12.79,29.81,4
3695643,0.51,-0.54,-0.69,1.02,-1.93,-0.78,44.08,12.79,29.81,4
3695658,0.51,-0.54,-0.69,0.84,-1.84,-0.71,44.05,12.83,30.07,4
3695668,0.51,-0.54,-0.68,0.91,-1.77,-0.63,44.05,12.83,30.07,4
3695678,0.51,-0.54,-0.68,1.06,-1.66,-0.55,44.05,12.83,30.07,4
3695692,0.51,-0.54,-0.68,1.49,-1.29,-0.11,44.05,12.83,30.07,4
3695702,0.51,-0.54,-0.69,1.81,-1.08,0.1,44.05,12.83,30.07,4
3695713,0.51,-0.54,-0.69,2.16,-1.01,0.2,44.12,12.98,30.1,4
3695724,0.51,-0.54,-0.69,2.68,-1.13,-0.04,44.12,12.98,30.1,4
3695735,0.51,-0.54,-0.69,2.64,-1.35,-0.27,44.12,12.98,30.1,4
3695745,0.51,-0.54,-0.69,2.38,-1.52,-0.5,44.12,12.98,30.1,4
3695756,0.51,-0.54,-0.69,1.94,-1.6,-0.59,44.16,13.02,30.14,4
3695767,0.51,-0.54,-0.69,1.48,-1.41,-0.35,44.16,13.02,30.14,4
3695778,0.51,-0.54,-0.69,1.59,-1.21,-0.22,44.16,13.02,30.14,4
3695790,0.51,-0.54,-0.69,1.84,-1.09,-0.06,44.16,13.02,30.14,4
3695801,0.52,-0.54,-0.69,2.2,-0.88,-0.01,44.16,13.02,30.14,4
3695813,0.52,-0.54,-0.7,2.04,-1.24,-0.34,44.23,12.88,30.2,4
3695823,0.52,-0.54,-0.7,1.56,-1.66,-0.74,44.23,12.88,30.2,4
3695833,0.51,-0.54,-0.69,0.88,-2.02,-1.09,44.23,12.88,30.2,4
3695844,0.51,-0.54,-0.69,-0.17,-2.61,-1.46,44.23,12.88,30.2,4
3695856,0.5,-0.54,-0.68,-0.22,-2.62,-1.4,44.26,12.91,30.17,4
3695868,0.5,-0.54,-0.68,0.02,-2.38,-1.13,44.26,12.91,30.17,4
3695880,0.5,-0.55,-0.68,1.02,-1.69,-0.37,44.26,12.91,30.17,4
3695890,0.51,-0.55,-0.68,1.51,-1.35,-0.0,44.26,12.91,30.17,4
3695901,0.51,-0.55,-0.69,1.85,-1.08,0.25,44.26,12.91,30.17,4
3695914,0.51,-0.54,-0.69,1.85,-1.14,0.23,44.19,12.9,30.33,4
3695926,0.51,-0.54,-0.69,1.6,-1.35,0.03,44.19,12.9,30.33,4
3695940,0.51,-0.54,-0.69,1.46,-1.55,-0.12,44.19,12.9,30.33,4
3695952,0.51,-0.54,-0.69,1.72,-1.48,0.03,44.19,12.9,30.33,4
3695963,0.51,-0.54,-0.69,2.12,-1.23,0.33,44.14,12.94,30.38,4
3695975,0.51,-0.54,-0.69,2.93,-0.79,0.7,44.14,12.94,30.38,4
3695985,0.51,-0.54,-0.69,3.0,-0.79,0.63,44.14,12.94,30.38,4
3695995,0.52,-0.54,-0.7,2.65,-0.91,0.42,44.14,12.94,30.38,4
3696006,0.52,-0.54,-0.7,1.96,-1.12,0.23,44.22,12.82,30.32,4
3696018,0.52,-0.54,-0.69,0.65,-1.57,-0.36,44.22,12.82,30.32,4
3696028,0.51,-0.54,-0.69,0.34,-1.87,-0.73,44.22,12.82,30.32,4
3696039,0.51,-0.54,-0.69,0.35,-2.11,-0.97,44.22,12.82,30.32,4
3696052,0.51,-0.54,-0.68,1.16,-2.09,-0.87,44.22,12.82,30.32,4
3696063,0.51,-0.54,-0.68,1.69,-1.91,-0.67,44.19,12.79,30.18,4
3696074,0.51,-0.54,-0.69,2.08,-1.61,-0.38,44.19,12.79,30.18,4
3696086,0.51,-0.54,-0.69,2.44,-1.11,0.13,44.19,12.79,30.18,4
3696098,0.51,-0.54,-0.69,2.4,-1.02,0.18,44.19,12.79,30.18,4
3696110,0.51,-0.54,-0.69,1.87,-1.08,0.11,44.1,12.85,30.05,4
3696121,0.51,-0.54,-0.69,1.63,-1.08,0.11,44.1,12.85,30.05,4
3696133,0.51,-0.54,-0.69,1.58,-1.09,0.15,44.1,12.85,30.05,4
3696143,0.51,-0.54,-0.69,1.66,-1.14,0.19,44.1,12.85,30.05,4
3696156,0.51,-0.54,-0.69,2.03,-1.37,0.01,43.98,12.74,30.31,4
3696166,0.51,-0.54,-0.69,2.11,-1.53,-0.18,43.98,12.74,30.31,4
3696176,0.51,-0.54,-0.69,1.97,-1.62,-0.32,43.98,12.74,30.31,4
3696189,0.51,-0.54,-0.69,1.4,-1.73,-0.44,43.98,12.74,30.31,4
3696200,0.51,-0.54,-0.69,1.24,-1.66,-0.33,43.98,12.74,30.31,4
3696211,0.51,-0.54,-0.69,1.25,-1.49,-0.16,43.96,12.75,30.19,4
3696222,0.51,-0.54,-0.69,1.73,-1.05,0.15,43.96,12.75,30.19,4
3696233,0.51,-0.54,-0.69,2.05,-0.95,0.2,43.96,12.75,30.19,4
3696243,0.51,-0.54,-0.69,2.26,-1.0,0.1,43.96,12.75,30.19,4
3696254,0.51,-0.54,-0.69,2.22,-1.18,-0.08,43.99,12.77,30.16,4
3696265,0.51,-0.54,-0.69,1.73,-1.56,-0.43,43.99,12.77,30.16,4
3696276,0.51,-0.54,-0.69,1.61,-1.61,-0.56,43.99,12.77,30.16,4
3696286,0.51,-0.54,-0.69,1.6,-1.63,-0.59,43.99,12.77,30.16,4
3696297,0.51,-0.54,-0.69,1.67,-1.62,-0.53,43.99,12.77,30.16,4
3696311,0.51,-0.54,-0.69,1.76,-1.57,-0.51,44.0,12.85,30.28,4
3696321,0.51,-0.54,-0.69,1.66,-1.46,-0.49,44.0,12.85,30.28,4
3696333,0.51,-0.54,-0.69,1.36,-1.32,-0.31,44.0,12.85,30.28,4
3696345,0.51,-0.54,-0.69,1.31,-1.4,-0.28,44.0,12.85,30.28,4
3696355,0.51,-0.54,-0.69,1.32,-1.53,-0.3,43.99,12.91,30.46,4
3696366,0.51,-0.55,-0.69,1.41,-1.6,-0.3,43.99,12.91,30.46,4
3696378,0.51,-0.55,-0.69,1.51,-1.32,-0.16,43.99,12.91,30.46,4
3696389,0.51,-0.54,-0.69,1.58,-1.3,-0.11,43.99,12.91,30.46,4
3696400,0.51,-0.54,-0.69,1.66,-1.36,-0.14,43.99,12.91,30.46,4
3696413,0.51,-0.54,-0.69,1.76,-1.5,-0.23,43.97,12.92,30.31,4
3696424,0.51,-0.54,-0.69,1.78,-1.52,-0.22,43.97,12.92,30.31,4
3696435,0.51,-0.54,-0.69,1.82,-1.52,-0.2,43.97,12.92,30.31,4
3696447,0.51,-0.54,-0.69,1.98,-1.61,-0.27,43.97,12.92,30.31,4
3696458,0.51,-0.54,-0.69,2.04,-1.64,-0.3,44.05,12.95,30.26,4
3696470,0.51,-0.54,-0.69,1.83,-1.66,-0.5,44.05,12.95,30.26,4
3696482,0.51,-0.54,-0.69,1.66,-1.69,-0.44,44.05,12.95,30.26,4
3696492,0.51,-0.54,-0.69,1.61,-1.64,-0.3,44.05,12.95,30.26,4
3696502,0.51,-0.54,-0.69,1.7,-1.53,-0.11,44.05,12.95,30.26,4
3696514,0.51,-0.54,-0.69,1.89,-1.53,0.0,44.17,12.9,30.21,4
3696525,0.51,-0.54,-0.69,1.84,-1.59,-0.12,44.17,12.9,30.21,4
3696535,0.51,-0.54,-0.69,1.7,-1.61,-0.24,44.17,12.9,30.21,4
3696545,0.51,-0.55,-0.69,1.43,-1.62,-0.32,44.17,12.9,30.21,4
3696557,0.51,-0.55,-0.69,0.89,-1.72,-0.41,44.17,12.9,30.13,4
3696568,0.51,-0.54,-0.69,0.84,-1.79,-0.43,44.17,12.9,30.13,4
3696578,0.51,-0.54,-0.69,0.91,-1.86,-0.47,44.17,12.9,30.13,4
3696588,0.51,-0.54,-0.68,1.14,-1.86,-0.43,44.17,12.9,30.13,4
3696598,0.51,-0.54,-0.68,1.35,-1.62,-0.26,44.17,12.9,30.13,4
3696611,0.52,-0.54,-0.69,1.85,-1.06,0.05,44.06,12.9,29.99,4
3696621,0.52,-0.54,-0.69,1.94,-1.13,-0.14,44.06,12.9,29.99,4
3696631,0.52,-0.54,-0.69,1.85,-1.38,-0.46,44.06,12.9,29.99,4
3696641,0.52,-0.54,-0.69,1.56,-1.66,-0.72,44.06,12.9,29.99,4
3696654,0.51,-0.54,-0.69,1.04,-1.98,-1.16,44.04,12.87,30.12,4
3696666,0.51,-0.54,-0.69,0.98,-2.06,-1.32,44.04,12.87,30.12,4
3696677,0.51,-0.54,-0.68,1.22,-2.0,-1.35,44.04,12.87,30.12,4
3696688,0.51,-0.54,-0.68,1.49,-1.83,-1.13,44.04,12.87,30.12,4
3696700,0.51,-0.54,-0.69,1.85,-1.53,-0.8,44.04,12.87,30.12,4
3696713,0.51,-0.55,-0.69,2.16,-1.18,-0.49,44.12,12.94,30.02,4
3696723,0.51,-0.55,-0.69,1.97,-1.22,-0.58,44.12,12.94,30.02,4
3696733,0.51,-0.55,-0.69,1.59,-1.34,-0.71,44.12,12.94,30.02,4
3696743,0.51,-0.55,-0.69,1.22,-1.45,-0.81,44.12,12.94,30.02,4
3696754,0.51,-0.55,-0.68,1.06,-1.52,-0.91,44.18,12.93,30.07,4
3696765,0.51,-0.54,-0.68,1.11,-1.67,-0.97,44.18,12.93,30.07,4
3696775,0.51,-0.55,-0.68,1.47,-1.73,-0.93,44.18,12.93,30.07,4
3696785,0.51,-0.55,-0.68,1.79,-1.71,-0.82,44.18,12.93,30.07,4
3696795,0.51,-0.55,-0.69,1.94,-1.66,-0.62,44.18,12.93,30.07,4
3696808,0.51,-0.55,-0.69,1.78,-1.56,-0.39,44.2,12.97,29.91,4
3696820,0.51,-0.55,-0.69,1.62,-1.5,-0.29,44.2,12.97,29.91,4
3696833,0.51,-0.54,-0.69,1.55,-1.34,-0.1,44.2,12.97,29.91,4
3696844,0.51,-0.54,-0.69,1.62,-1.24,-0.04,44.2,12.97,29.91,4
3696855,0.52,-0.55,-0.69,1.68,-1.21,-0.07,44.21,13.03,29.83,4
3696866,0.52,-0.55,-0.69,1.64,-1.42,-0.39,44.21,13.03,29.83,4
3696877,0.51,-0.55,-0.69,1.49,-1.66,-0.7,44.21,13.03,29.83,4
3696887,0.51,-0.55,-0.69,1.33,-1.9,-0.95,44.21,13.03,29.83,4
3696899,0.51,-0.55,-0.69,1.19,-2.02,-1.06,44.21,13.03,29.83,4
3696912,0.5,-0.55,-0.68,1.48,-1.84,-0.63,44.26,13.0,29.69,4
3696922,0.51,-0.55,-0.68,1.88,-1.46,-0.18,44.26,13.0,29.69,4
3696932,0.51,-0.55,-0.68,2.33,-1.02,0.22,44.26,13.0,29.69,4
3696942,0.51,-0.55,-0.69,2.7,-0.7,0.47,44.26,13.0,29.69,4
3696955,0.51,-0.55,-0.69,2.63,-0.63,0.33,44.32,12.99,29.79,4
3696965,0.51,-0.55,-0.69,2.21,-0.81,0.11,44.32,12.99,29.79,4
3696975,0.51,-0.55,-0.69,1.7,-0.97,-0.15,44.32,12.99,29.79,4
3696985,0.51,-0.54,-0.69,1.36,-1.12,-0.33,44.32,12.99,29.79,4
3696997,0.51,-0.54,-0.68,1.59,-1.44,-0.46,44.32,12.99,29.79,4
3697008,0.51,-0.54,-0.68,2.06,-1.39,-0.34,44.31,12.93,29.82,4
3697020,0.51,-0.54,-0.69,3.1,-0.77,0.2,44.31,12.93,29.82,4
3697032,0.51,-0.54,-0.69,3.28,-0.52,0.43,44.31,12.93,29.82,4
3697042,0.51,-0.55,-0.69,3.13,-0.42,0.52,44.31,12.93,29.82,4
3697053,0.51,-0.55,-0.69,2.71,-0.46,0.46,44.21,13.05,29.8,4
3697065,0.51,-0.55,-0.69,1.49,-0.72,0.21,44.21,13.05,29.8,4
3697075,0.51,-0.55,-0.69,1.07,-0.88,0.0,44.21,13.05,29.8,4
3697085,0.51,-0.54,-0.69,0.97,-1.08,-0.13,44.21,13.05,29.8,4
3697095,0.51,-0.54,-0.68,1.12,-1.21,-0.24,44.21,13.05,29.8,4
3697108,0.51,-0.55,-0.68,1.57,-1.41,-0.38,44.2,12.98,29.64,4
3697118,0.51,-0.55,-0.68,1.72,-1.51,-0.38,44.2,12.98,29.64,4
3697128,0.51,-0.55,-0.68,1.79,-1.48,-0.31,44.2,12.98,29.64,4
3697140,0.51,-0.55,-0.68,2.05,-1.13,0.03,44.2,12.98,29.64,4
3697153,0.51,-0.55,-0.69,2.18,-1.01,0.12,44.25,13.01,29.74,4
3697164,0.51,-0.54,-0.69,2.24,-0.99,0.11,44.25,13.01,29.74,4
3697176,0.51,-0.54,-0.69,2.16,-0.87,0.17,44.25,13.01,29.74,4
3697188,0.51,-0.54,-0.69,2.11,-0.95,0.12,44.25,13.01,29.74,4
3697198,0.51,-0.55,-0.69,1.98,-1.03,-0.01,44.25,13.01,29.74,4
3697211,0.51,-0.54,-0.69,1.63,-1.22,-0.19,44.27,13.03,29.61,4
3697222,0.51,-0.54,-0.69,1.62,-1.24,-0.2,44.27,13.03,29.61,4
3697233,0.51,-0.54,-0.69,1.73,-1.2,-0.09,44.27,13.03,29.61,4
3697244,0.51,-0.54,-0.69,2.08,-1.07,0.19,44.27,13.03,29.61,4
3697256,0.51,-0.54,-0.69,2.13,-1.05,0.26,44.32,13.09,29.71,4
3697267,0.51,-0.55,-0.69,2.05,-1.1,0.24,44.32,13.09,29.71,4
3697279,0.51,-0.55,-0.69,1.5,-1.07,0.05,44.32,13.09,29.71,4
3697291,0.51,-0.55,-0.69,1.26,-1.09,-0.01,44.32,13.09,29.71,4
3697302,0.51,-0.55,-0.69,1.12,-1.16,-0.06,44.3,13.11,29.96,4
3697314,0.5,-0.54,-0.69,1.32,-1.44,-0.2,44.3,13.11,29.96,4
3697326,0.5,-0.54,-0.68,1.43,-1.46,-0.26,44.3,13.11,29.96,4
3697339,0.5,-0.55,-0.68,1.75,-1.23,0.29,44.3,13.11,29.96,4
3697350,0.5,-0.55,-0.68,1.95,-0.92,0.67,44.3,13.11,29.96,4
3697361,0.51,-0.55,-0.68,2.08,-0.59,0.96,44.34,13.09,30.09,4
3697371,0.51,-0.55,-0.69,2.09,-0.37,1.18,44.34,13.09,30.09,4
3697382,0.51,-0.54,-0.69,2.11,-0.16,1.33,44.34,13.09,30.09,4
3697393,0.52,-0.54,-0.69,2.09,-0.2,1.19,44.34,13.09,30.09,4
3697404,0.52,-0.54,-0.69,2.02,-0.47,0.88,44.28,13.16,30.0,4
3697414,0.52,-0.54,-0.69,1.85,-0.82,0.45,44.28,13.16,30.0,4
3697426,0.51,-0.54,-0.69,1.54,-1.34,-0.25,44.28,13.16,30.0,4
3697436,0.51,-0.54,-0.69,1.55,-1.51,-0.39,44.28,13.16,30.0,4
3697446,0.51,-0.54,-0.69,1.62,-1.62,-0.52,44.28,13.16,30.0,4
3697457,0.51,-0.54,-0.69,1.67,-1.73,-0.67,44.23,13.11,29.88,4
3697469,0.51,-0.54,-0.69,1.61,-1.83,-1.0,44.23,13.11,29.88,4
3697481,0.51,-0.54,-0.69,1.31,-2.04,-1.24,44.23,13.11,29.88,4
3697494,0.51,-0.54,-0.69,0.8,-2.06,-1.23,44.23,13.11,29.88,4
3697505,0.51,-0.55,-0.69,0.79,-1.89,-1.05,44.34,13.21,29.94,4
3697516,0.51,-0.55,-0.69,0.9,-1.61,-0.86,44.34,13.21,29.94,4
3697526,0.51,-0.55,-0.68,0.97,-1.4,-0.67,44.34,13.21,29.94,4
3697538,0.51,-0.55,-0.68,1.09,-1.19,-0.29,44.34,13.21,29.94,4
3697548,0.51,-0.55,-0.68,1.17,-1.05,-0.16,44.34,13.21,29.94,4
3697559,0.51,-0.55,-0.68,1.31,-1.0,-0.18,44.39,13.22,29.91,4
3697569,0.51,-0.55,-0.69,1.41,-1.11,-0.31,44.39,13.22,29.91,4
3697581,0.51,-0.55,-0.69,1.64,-1.52,-0.66,44.39,13.22,29.91,4
3697591,0.51,-0.55,-0.69,1.79,-1.71,-0.88,44.39,13.22,29.91,4
3697602,0.51,-0.55,-0.69,1.77,-1.95,-1.08,44.35,13.17,29.81,4
3697613,0.51,-0.55,-0.69,1.62,-2.15,-1.11,44.35,13.17,29.81,4
3697624,0.51,-0.54,-0.69,1.56,-1.95,-0.93,44.35,13.17,29.81,4
3697635,0.51,-0.55,-0.69,1.63,-1.73,-0.7,44.35,13.17,29.81,4
3697646,0.51,-0.55,-0.69,1.67,-1.54,-0.56,44.35,13.17,29.81,4
3697659,0.51,-0.55,-0.69,1.49,-1.28,-0.31,44.36,13.25,29.83,4
3697670,0.51,-0.55,-0.69,1.42,-1.19,-0.27,44.36,13.25,29.83,4
3697682,0.51,-0.55,-0.69,1.4,-1.22,-0.31,44.36,13.25,29.83,4
3697693,0.51,-0.55,-0.69,1.42,-1.38,-0.45,44.36,13.25,29.83,4
3697704,0.51,-0.55,-0.68,1.43,-1.56,-0.58,44.27,13.41,29.77,4
3697714,0.51,-0.55,-0.68,1.48,-1.67,-0.62,44.27,13.41,29.77,4
3697725,0.51,-0.55,-0.68,1.59,-1.58,-0.69,44.27,13.41,29.77,4
3697736,0.51,-0.55,-0.68,1.68,-1.59,-0.62,44.27,13.41,29.77,4
3697748,0.51,-0.55,-0.68,1.8,-1.51,-0.5,44.27,13.41,29.77,4
3697761,0.51,-0.55,-0.68,1.95,-1.14,-0.17,44.22,13.37,29.81,4
3697771,0.51,-0.55,-0.69,1.95,-1.04,-0.05,44.22,13.37,29.81,4
3697781,0.51,-0.55,-0.69,1.94,-0.96,0.02,44.22,13.37,29.81,4
3697791,0.51,-0.55,-0.69,1.91,-0.89,0.07,44.22,13.37,29.81,4
3697803,0.51,-0.55,-0.69,1.9,-1.01,0.07,44.33,13.33,29.92,4
3697813,0.51,-0.55,-0.69,1.91,-0.98,0.11,44.33,13.33,29.92,4
3697823,0.51,-0.55,-0.69,1.9,-0.88,0.1,44.33,13.33,29.92,4
3697833,0.51,-0.55,-0.69,1.91,-0.93,-0.02,44.33,13.33,29.92,4
3697843,0.51,-0.55,-0.69,1.88,-1.13,-0.25,44.33,13.33,29.92,4
3697856,0.51,-0.55,-0.69,1.38,-1.62,-0.62,44.29,13.37,29.89,4
3697866,0.51,-0.55,-0.68,1.14,-1.71,-0.64,44.29,13.37,29.89,4
3697876,0.51,-0.55,-0.68,1.04,-1.63,-0.61,44.29,13.37,29.89,4
3697889,0.5,-0.55,-0.68,1.38,-1.35,-0.16,44.29,13.37,29.89,4
3697902,0.5,-0.55,-0.68,1.74,-1.13,0.12,44.31,13.32,29.88,4
3697916,0.51,-0.55,-0.69,2.42,-0.77,0.65,44.31,13.32,29.88,4
3697926,0.51,-0.55,-0.69,2.49,-0.78,0.56,44.31,13.32,29.88,4
3697936,0.51,-0.55,-0.69,2.29,-0.93,0.4,44.31,13.32,29.88,4
3697946,0.51,-0.55,-0.69,1.94,-1.15,0.19,44.31,13.32,29.88,4
3697959,0.51,-0.55,-0.69,1.39,-1.36,-0.15,44.25,13.32,29.92,4
3697969,0.51,-0.55,-0.69,1.36,-1.32,-0.25,44.25,13.32,29.92,4
3697979,0.51,-0.54,-0.69,1.51,-1.38,-0.34,44.25,13.32,29.92,4
3697992,0.51,-0.54,-0.69,2.07,-1.59,-0.39,44.25,13.32,29.92,4
3698003,0.51,-0.54,-0.69,2.26,-1.48,-0.2,44.2,13.3,29.56,4
3698014,0.51,-0.55,-0.69,2.25,-1.3,0.08,44.2,13.3,29.56,4
3698024,0.51,-0.55,-0.69,2.05,-1.16,0.25,44.2,13.3,29.56,4
3698036,0.51,-0.55,-0.69,1.43,-1.07,0.18,44.2,13.3,29.56,4
3698046,0.51,-0.55,-0.69,1.07,-1.15,-0.01,44.2,13.3,29.56,4
3698057,0.51,-0.55,-0.69,0.77,-1.28,-0.21,44.29,13.36,29.73,4
3698068,0.51,-0.55,-0.69,0.73,-1.66,-0.49,44.29,13.36,29.73,4
3698079,0.51,-0.55,-0.68,0.97,-1.75,-0.52,44.29,13.36,29.73,4
3698089,0.51,-0.55,-0.68,1.35,-1.74,-0.4,44.29,13.36,29.73,4
3698099,0.51,-0.55,-0.68,1.74,-1.6,-0.19,44.29,13.36,29.73,4
3698110,0.51,-0.55,-0.68,2.04,-1.42,-0.02,44.42,13.35,29.84,4
3698122,0.5,-0.55,-0.69,2.08,-1.05,0.23,44.42,13.35,29.84,4
3698133,0.5,-0.55,-0.69,1.92,-0.91,0.28,44.42,13.35,29.84,4
3698147,0.51,-0.55,-0.69,1.69,-0.78,0.35,44.42,13.35,29.84,4
3698158,0.51,-0.55,-0.69,1.72,-0.8,0.33,44.48,13.33,29.81,4
3698168,0.51,-0.54,-0.69,1.84,-0.85,0.24,44.48,13.33,29.81,4
3698178,0.51,-0.54,-0.69,2.01,-0.85,0.22,44.48,13.33,29.81,4
3698190,0.51,-0.55,-0.69,2.26,-0.97,0.08,44.48,13.33,29.81,4
3698201,0.51,-0.55,-0.69,2.2,-1.05,-0.0,44.49,13.24,29.67,4
3698211,0.51,-0.55,-0.69,1.97,-1.19,-0.15,44.49,13.24,29.67,4
3698224,0.51,-0.55,-0.69,1.29,-1.38,-0.49,44.49,13.24,29.67,4
3698236,0.51,-0.55,-0.68,1.05,-1.48,-0.61,44.49,13.24,29.67,4
3698251,0.5,-0.55,-0.68,1.17,-1.58,-0.57,44.47,13.28,29.57,4
3698263,0.5,-0.55,-0.68,1.52,-1.53,-0.42,44.47,13.28,29.57,4
3698273,0.5,-0.55,-0.68,1.83,-1.41,-0.29,44.47,13.28,29.57,4
3698285,0.51,-0.55,-0.69,2.44,-1.07,0.13,44.47,13.28,29.57,4
3698295,0.51,-0.55,-0.69,2.59,-0.92,0.22,44.47,13.28,29.57,4
3698306,0.51,-0.55,-0.69,2.61,-0.92,0.21,44.37,13.38,29.63,4
3698316,0.51,-0.55,-0.69,2.39,-1.08,0.11,44.37,13.38,29.63,4
3698328,0.51,-0.55,-0.69,1.47,-1.31,-0.33,44.37,13.38,29.63,4
3698338,0.51,-0.55,-0.69,1.05,-1.48,-0.49,44.37,13.38,29.63,4
3698348,0.51,-0.55,-0.68,0.83,-1.54,-0.55,44.37,13.38,29.63,4
3698359,0.51,-0.55,-0.68,0.92,-1.5,-0.53,44.41,13.35,29.55,4
3698371,0.5,-0.55,-0.68,1.67,-1.4,-0.33,44.41,13.35,29.55,4
3698382,0.5,-0.55,-0.68,2.07,-1.35,-0.19,44.41,13.35,29.55,4
3698396,0.5,-0.55,-0.69,2.36,-1.1,0.09,44.41,13.35,29.55,4
3698407,0.51,-0.55,-0.69,2.24,-0.96,0.21,44.41,13.29,29.6,4
3698419,0.51,-0.55,-0.69,2.09,-0.86,0.3,44.41,13.29,29.6,4
3698431,0.51,-0.55,-0.69,1.89,-0.83,0.23,44.41,13.29,29.6,4
3698441,0.51,-0.55,-0.69,1.84,-0.92,0.07,44.41,13.29,29.6,4
3698452,0.51,-0.55,-0.69,1.74,-1.09,-0.08,44.42,13.34,29.97,4
3698462,0.51,-0.54,-0.68,1.68,-1.28,-0.18,44.42,13.34,29.97,4
3698474,0.51,-0.54,-0.68,1.76,-1.32,-0.18,44.42,13.34,29.97,4
3698485,0.51,-0.55,-0.69,2.0,-1.3,-0.09,44.42,13.34,29.97,4
3698499,0.51,-0.55,-0.69,2.39,-1.06,0.05,44.42,13.34,29.97,4
3698510,0.51,-0.55,-0.69,2.4,-1.02,0.03,44.46,13.33,29.53,4
3698522,0.51,-0.55,-0.69,2.22,-1.1,-0.11,44.46,13.33,29.53,4
3698534,0.5,-0.55,-0.69,1.58,-1.24,-0.37,44.46,13.33,29.53,4
3698545,0.5,-0.55,-0.68,1.38,-1.21,-0.32,44.46,13.33,29.53,4
3698557,0.5,-0.55,-0.68,1.53,-0.91,0.16,44.45,13.28,29.42,4
3698568,0.51,-0.55,-0.68,1.8,-0.63,0.41,44.45,13.28,29.42,4
3698580,0.51,-0.55,-0.68,2.07,-0.44,0.52,44.45,13.28,29.42,4
3698594,0.51,-0.55,-0.69,2.27,-0.41,0.49,44.45,13.28,29.42,4
3698605,0.51,-0.54,-0.69,2.27,-0.5,0.4,44.41,13.34,29.61,4
3698615,0.51,-0.54,-0.69,2.3,-0.53,0.23,44.41,13.34,29.61,4
3698625,0.51,-0.54,-0.69,2.29,-0.97,-0.2,44.41,13.34,29.61,4
3698637,0.51,-0.54,-0.69,2.16,-1.54,-0.74,44.41,13.34,29.61,4
3698647,0.51,-0.55,-0.69,1.9,-1.67,-0.81,44.41,13.34,29.61,4
3698658,0.51,-0.55,-0.69,1.61,-1.77,-0.96,44.43,13.34,29.74,4
3698671,0.5,-0.55,-0.69,1.06,-1.58,-1.1,44.43,13.34,29.74,4
3698682,0.5,-0.55,-0.69,0.97,-1.45,-0.91,44.43,13.34,29.74,4
3698692,0.5,-0.55,-0.69,1.14,-1.3,-0.69,44.43,13.34,29.74,4
3698704,0.51,-0.54,-0.69,1.71,-1.03,-0.28,44.36,13.23,29.74,4
3698715,0.51,-0.55,-0.69,1.89,-1.07,-0.24,44.36,13.23,29.74,4
3698725,0.51,-0.55,-0.69,1.86,-1.14,-0.32,44.36,13.23,29.74,4
3698735,0.51,-0.55,-0.69,1.65,-1.24,-0.33,44.36,13.23,29.74,4
3698748,0.5,-0.55,-0.68,1.22,-1.2,-0.19,44.36,13.23,29.74,4
3698759,0.5,-0.55,-0.68,1.22,-1.09,-0.05,44.46,13.25,29.68,4
3698772,0.5,-0.55,-0.68,1.62,-1.0,0.18,44.46,13.25,29.68,4
3698783,0.5,-0.55,-0.68,1.9,-1.01,0.35,44.46,13.25,29.68,4
3698795,0.5,-0.55,-0.69,2.11,-0.83,0.58,44.46,13.25,29.68,4
3698807,0.51,-0.55,-0.69,2.25,-0.31,0.8,44.47,13.26,29.74,4
3698818,0.51,-0.55,-0.69,2.16,-0.35,0.59,44.47,13.26,29.74,4
3698828,0.51,-0.55,-0.69,1.98,-0.64,0.3,44.47,13.26,29.74,4
3698838,0.51,-0.55,-0.69,1.8,-0.96,-0.05,44.47,13.26,29.74,4
3698848,0.51,-0.55,-0.69,1.69,-1.14,-0.32,44.47,13.26,29.74,4
3698861,0.51,-0.54,-0.69,1.74,-1.35,-0.61,44.47,13.2,29.71,4
3698872,0.51,-0.54,-0.69,1.9,-1.35,-0.64,44.47,13.2,29.71,4
3698886,0.51,-0.55,-0.69,2.22,-1.3,-0.63,44.47,13.2,29.71,4
3698898,0.51,-0.55,-0.69,2.29,-1.12,-0.58,44.47,13.2,29.71,4
3698910,0.5,-0.55,-0.69,2.11,-0.93,-0.55,44.49,13.15,29.66,4
3698921,0.5,-0.55,-0.69,1.89,-0.93,-0.56,44.49,13.15,29.66,4
3698931,0.5,-0.55,-0.69,1.63,-0.86,-0.48,44.49,13.15,29.66,4
3698941,0.5,-0.55,-0.69,1.49,-0.69,-0.39,44.49,13.15,29.66,4
3698954,0.5,-0.55,-0.68,1.35,-0.52,-0.07,44.33,13.07,29.52,4
3698965,0.5,-0.55,-0.68,1.47,-0.45,0.09,44.33,13.07,29.52,4
3698978,0.51,-0.55,-0.68,1.94,-0.44,0.12,44.33,13.07,29.52,4
3698989,0.51,-0.55,-0.69,2.13,-0.57,0.05,44.33,13.07,29.52,4
3699000,0.51,-0.55,-0.69,2.3,-0.74,-0.04,44.31,13.13,29.67,4
3699013,0.5,-0.55,-0.69,2.56,-1.0,-0.17,44.31,13.13,29.67,4
3699024,0.5,-0.54,-0.69,2.68,-1.09,-0.27,44.31,13.13,29.67,4
3699036,0.5,-0.54,-0.69,2.79,-1.13,-0.25,44.31,13.13,29.67,4
3699046,0.5,-0.54,-0.69,2.84,-1.09,-0.17,44.31,13.13,29.67,4
3699059,0.51,-0.55,-0.69,2.63,-1.06,-0.11,44.43,13.0,29.79,4
3699069,0.51,-0.55,-0.69,2.2,-1.12,-0.21,44.43,13.0,29.79,4
3699079,0.51,-0.55,-0.69,1.67,-1.23,-0.34,44.43,13.0,29.79,4
3699090,0.5,-0.55,-0.69,0.97,-1.27,-0.42,44.43,13.0,29.79,4
3699102,0.5,-0.55,-0.69,0.93,-1.3,-0.42,44.31,13.01,29.95,4
3699114,0.5,-0.55,-0.68,1.01,-1.33,-0.35,44.31,13.01,29.95,4
3699126,0.5,-0.55,-0.68,1.42,-1.11,-0.12,44.31,13.01,29.95,4
3699136,0.5,-0.55,-0.68,1.72,-0.99,0.05,44.31,13.01,29.95,4
3699146,0.5,-0.55,-0.68,2.02,-0.92,0.2,44.31,13.01,29.95,4
3699157,0.5,-0.55,-0.69,2.27,-0.84,0.39,44.39,13.02,29.94,4
3699169,0.51,-0.55,-0.69,2.64,-0.73,0.37,44.39,13.02,29.94,4
3699179,0.51,-0.55,-0.69,2.57,-0.93,0.14,44.39,13.02,29.94,4
3699190,0.51,-0.55,-0.69,2.23,-1.21,-0.12,44.39,13.02,29.94,4
3699204,0.5,-0.54,-0.69,1.53,-1.55,-0.38,44.48,13.11,29.85,4
3699214,0.5,-0.54,-0.69,1.42,-1.55,-0.29,44.48,13.11,29.85,4
3699225,0.5,-0.54,-0.69,1.5,-1.4,-0.17,44.48,13.11,29.85,4
3699237,0.51,-0.54,-0.69,2.03,-1.09,0.14,44.48,13.11,29.85,4
3699248,0.51,-0.55,-0.69,2.15,-1.07,0.13,44.48,13.11,29.85,4
3699259,0.51,-0.55,-0.69,2.02,-1.13,0.12,44.46,13.16,29.77,4
3699272,0.51,-0.55,-0.69,1.35,-1.13,-0.08,44.46,13.16,29.77,4
3699283,0.51,-0.55,-0.69,1.1,-1.15,-0.2,44.46,13.16,29.77,4
3699293,0.51,-0.55,-0.69,1.01,-1.2,-0.37,44.46,13.16,29.77,4
3699306,0.5,-0.55,-0.68,1.04,-1.53,-0.59,44.4,13.08,29.95,4
3699318,0.5,-0.55,-0.68,1.2,-1.6,-0.47,44.4,13.08,29.95,4
3699328,0.5,-0.55,-0.68,1.52,-1.42,-0.11,44.4,13.08,29.95,4
3699339,0.5,-0.55,-0.68,2.65,-0.84,0.62,44.4,13.08,29.95,4
3699351,0.51,-0.55,-0.69,3.07,-0.67,0.77,44.31,13.2,29.94,4
3699361,0.51,-0.55,-0.69,3.16,-0.7,0.65,44.31,13.2,29.94,4
3699371,0.51,-0.55,-0.7,2.88,-0.89,0.31,44.31,13.2,29.94,4
3699382,0.51,-0.55,-0.7,1.57,-1.32,-0.35,44.31,13.2,29.94,4
3699393,0.5,-0.55,-0.69,0.98,-1.53,-0.52,44.31,13.2,29.94,4
3699404,0.5,-0.55,-0.69,0.68,-1.64,-0.59,44.34,13.18,29.79,4
3699414,0.5,-0.54,-0.69,0.79,-1.73,-0.64,44.34,13.18,29.79,4
3699425,0.5,-0.54,-0.69,1.56,-1.72,-0.57,44.34,13.18,29.79,4
3699436,0.5,-0.55,-0.69,1.9,-1.61,-0.32,44.34,13.18,29.79,4
3699449,0.5,-0.55,-0.69,2.09,-1.43,-0.1,44.23,13.18,29.92,4
3699461,0.51,-0.55,-0.69,1.86,-1.23,0.14,44.23,13.18,29.92,4
3699473,0.51,-0.55,-0.69,1.57,-1.21,0.15,44.23,13.18,29.92,4
3699486,0.51,-0.55,-0.69,1.26,-1.2,0.19,44.23,13.18,29.92,4
3699499,0.51,-0.55,-0.69,1.25,-1.27,0.08,44.25,13.15,30.02,4
3699512,0.5,-0.55,-0.69,1.12,-1.6,-0.35,44.25,13.15,30.02,4
3699523,0.5,-0.55,-0.69,1.01,-1.73,-0.48,44.25,13.15,30.02,4
3699534,0.5,-0.55,-0.68,1.03,-1.75,-0.4,44.25,13.15,30.02,4
3699546,0.5,-0.55,-0.68,1.53,-1.22,0.06,44.25,13.15,30.02,4
3699557,0.5,-0.55,-0.68,1.84,-1.06,0.22,44.26,13.18,30.27,4
3699569,0.5,-0.55,-0.69,2.15,-0.96,0.39,44.26,13.18,30.27,4
3699581,0.51,-0.55,-0.69,2.56,-0.63,0.59,44.26,13.18,30.27,4
3699591,0.51,-0.55,-0.69,2.48,-0.58,0.57,44.26,13.18,30.27,4
3699602,0.51,-0.55,-0.69,2.21,-0.66,0.46,44.19,13.23,30.02,4
3699612,0.51,-0.55,-0.69,1.89,-0.78,0.24,44.19,13.23,30.02,4
3699624,0.5,-0.55,-0.69,1.36,-1.11,-0.17,44.19,13.23,30.02,4
3699634,0.5,-0.55,-0.69,1.31,-1.21,-0.13,44.19,13.23,30.02,4
3699644,0.5,-0.55,-0.69,1.47,-1.17,0.04,44.19,13.23,30.02,4
3699655,0.5,-0.55,-0.69,1.67,-1.08,0.29,44.3,13.28,29.96,4
3699667,0.47,-0.55,-0.69,-0.44,-0.5,2.0,44.3,13.28,29.96,4
3699677,0.47,-0.55,-0.69,-1.66,0.79,3.18,44.3,13.28,29.96,4
3699688,0.48,-0.55,-0.68,-2.33,2.45,4.73,44.3,13.28,29.96,4
3699701,0.5,-0.55,-0.68,-1.64,4.79,6.47,44.28,13.33,30.16,4
3699711,0.52,-0.54,-0.68,0.4,5.29,6.15,44.28,13.33,30.16,4
3699721,0.52,-0.54,-0.68,2.97,5.17,5.28,44.28,13.33,30.16,4
3699731,0.52,-0.54,-0.68,5.1,4.2,4.17,44.28,13.33,30.16,4
3699744,0.51,-0.54,-0.69,6.16,1.01,1.98,44.28,13.33,30.16,4
3699755,0.51,-0.54,-0.69,5.66,-0.52,0.87,44.3,13.37,30.08,4
3699767,0.51,-0.54,-0.69,5.11,-1.74,-0.13,44.3,13.37,30.08,4
3699779,0.5,-0.55,-0.7,4.15,-3.73,-1.39,44.3,13.37,30.08,4
3699791,0.49,-0.55,-0.7,3.05,-4.12,-1.41,44.3,13.37,30.08,4
3699803,0.48,-0.55,-0.71,-1.07,-2.61,0.83,44.29,13.35,30.23,4
3699814,0.51,-0.54,-0.69,-3.27,-1.69,2.45,44.29,13.35,30.23,4
3699824,0.52,-0.54,-0.69,-3.48,-2.03,3.25,44.29,13.35,30.23,4
3699835,0.51,-0.54,-0.69,-2.5,-2.31,3.24,44.29,13.35,30.23,4
3699849,0.5,-0.55,-0.69,-1.93,-2.39,3.54,44.24,13.36,30.1,4
3699860,0.5,-0.55,-0.69,-2.9,-2.55,3.73,44.24,13.36,30.1,4
3699871,0.51,-0.55,-0.69,-5.25,-2.53,3.79,44.24,13.36,30.1,4
3699882,0.53,-0.54,-0.69,-5.95,-2.59,3.47,44.24,13.36,30.1,4
3699894,0.54,-0.54,-0.68,-6.17,-3.03,2.88,44.24,13.36,30.1,4
3699907,0.52,-0.54,-0.69,-6.39,-6.91,2.03,44.07,13.33,30.41,4
3699919,0.51,-0.54,-0.69,-6.14,-8.51,1.69,44.07,13.33,30.41,4
3699932,0.5,-0.55,-0.69,-6.76,-11.03,3.04,44.07,13.33,30.41,4
3699943,0.5,-0.55,-0.69,-7.58,-12.06,3.94,44.07,13.33,30.41,4
3699954,0.51,-0.55,-0.68,-8.17,-12.79,4.19,44.07,13.44,30.28,4
3699967,0.52,-0.56,-0.67,-9.63,-13.8,3.56,44.07,13.44,30.28,4
3699979,0.53,-0.57,-0.67,-10.75,-14.07,2.7,44.07,13.44,30.28,4
3699993,0.55,-0.59,-0.65,-15.79,-15.04,1.3,44.07,13.44,30.28,4
3700004,0.55,-0.58,-0.65,-19.0,-16.18,0.96,44.11,13.52,30.01,4
3700016,0.55,-0.58,-0.64,-22.01,-17.52,0.37,44.11,13.52,30.01,4
3700028,0.54,-0.58,-0.63,-26.32,-19.77,-0.79,44.11,13.52,30.01,4
3700040,0.54,-0.58,-0.63,-27.49,-20.3,-1.13,44.11,13.52,30.01,4
3700052,0.54,-0.58,-0.62,-26.73,-19.91,-1.34,44.3,13.67,29.7,4
3700063,0.55,-0.58,-0.61,-24.63,-19.2,-1.42,44.3,13.67,29.7,4
3700075,0.55,-0.58,-0.61,-22.19,-18.73,-1.65,44.3,13.67,29.7,4
3700086,0.55,-0.58,-0.61,-17.35,-18.79,-2.26,44.3,13.67,29.7,4
3700098,0.56,-0.59,-0.6,-15.31,-18.96,-2.8,44.6,14.07,29.35,4
3700110,0.56,-0.6,-0.6,-13.34,-18.83,-3.52,44.6,14.07,29.35,4
3700122,0.55,-0.6,-0.6,-9.79,-18.03,-4.57,44.6,14.07,29.35,4
3700134,0.55,-0.6,-0.6,-8.47,-17.54,-4.85,44.6,14.07,29.35,4
3700149,0.54,-0.59,-0.6,-6.09,-15.31,-4.23,44.88,14.44,28.88,4
3700160,0.54,-0.59,-0.59,-4.64,-14.01,-3.36,44.88,14.44,28.88,4
3700174,0.55,-0.6,-0.59,-2.33,-12.08,-1.56,44.88,14.44,28.88,4
3700186,0.56,-0.6,-0.59,-1.43,-11.56,-0.74,44.88,14.44,28.88,4
3700200,0.57,-0.6,-0.58,0.44,-10.7,0.13,45.01,14.82,28.63,4
3700211,0.56,-0.61,-0.58,0.92,-10.71,0.21,45.01,14.82,28.63,4
3700221,0.56,-0.61,-0.58,1.2,-10.73,0.34,45.01,14.82,28.63,4
3700231,0.55,-0.61,-0.58,1.15,-10.81,0.05,45.01,14.82,28.63,4
3700243,0.56,-0.6,-0.57,1.27,-10.16,-0.01,45.01,14.82,28.63,4
3700254,0.57,-0.61,-0.57,1.53,-10.24,-0.05,45.2,15.12,28.36,4
3700266,0.57,-0.61,-0.57,2.51,-11.21,-0.54,45.2,15.12,28.36,4
3700278,0.58,-0.61,-0.57,3.34,-11.79,-0.89,45.2,15.12,28.36,4
3700288,0.58,-0.61,-0.57,3.62,-12.92,-1.23,45.2,15.12,28.36,4
3700299,0.57,-0.61,-0.57,3.14,-14.07,-1.39,45.47,15.54,28.03,4
3700311,0.57,-0.61,-0.57,3.02,-14.07,-1.07,45.47,15.54,28.03,4
3700322,0.57,-0.61,-0.56,2.88,-13.51,-0.89,45.47,15.54,28.03,4
3700335,0.58,-0.61,-0.56,2.61,-12.11,-0.34,45.47,15.54,28.03,4
3700347,0.58,-0.61,-0.56,2.05,-11.99,-0.26,45.76,15.78,27.41,4
3700359,0.58,-0.61,-0.56,1.53,-12.02,-0.17,45.76,15.78,27.41,4
3700371,0.58,-0.61,-0.56,1.3,-11.85,-0.1,45.76,15.78,27.41,4
3700382,0.59,-0.6,-0.56,1.4,-11.86,-0.21,45.76,15.78,27.41,4
3700395,0.59,-0.6,-0.56,1.18,-13.6,-1.29,45.76,15.78,27.41,4
3700407,0.59,-0.6,-0.55,1.21,-14.73,-2.06,45.98,15.93,27.12,4
3700419,0.59,-0.61,-0.55,1.66,-15.16,-2.63,45.98,15.93,27.12,4
3700431,0.58,-0.61,-0.55,2.04,-14.91,-3.39,45.98,15.93,27.12,4
3700443,0.59,-0.61,-0.55,2.3,-14.05,-3.3,45.98,15.93,27.12,4
3700454,0.59,-0.61,-0.54,2.76,-12.93,-3.1,46.31,15.91,26.66,4
3700466,0.6,-0.62,-0.54,3.87,-10.82,-2.66,46.31,15.91,26.66,4
3700478,0.6,-0.62,-0.54,3.72,-10.33,-2.48,46.31,15.91,26.66,4
3700491,0.59,-0.62,-0.54,2.25,-9.71,-2.23,46.31,15.91,26.66,4
3700502,0.59,-0.61,-0.54,1.59,-9.16,-2.22,46.44,16.05,26.32,4
3700514,0.59,-0.61,-0.54,1.13,-8.35,-2.2,46.44,16.05,26.32,4
3700526,0.58,-0.61,-0.54,0.59,-6.08,-1.6,46.44,16.05,26.32,4
3700538,0.58,-0.6,-0.54,0.71,-4.73,-1.06,46.44,16.05,26.32,4
3700550,0.59,-0.61,-0.54,2.17,-2.54,0.09,46.58,16.12,25.95,4
3700561,0.59,-0.61,-0.54,3.52,-1.45,0.65,46.58,16.12,25.95,4
3700572,0.6,-0.61,-0.54,4.71,-0.85,0.94,46.58,16.12,25.95,4
3700586,0.6,-0.61,-0.55,4.13,-1.95,0.55,46.58,16.12,25.95,4
3700597,0.59,-0.61,-0.54,3.95,-2.08,0.35,46.73,16.35,25.71,4
3700610,0.59,-0.61,-0.55,3.8,-1.09,0.61,46.73,16.35,25.71,4
3700621,0.59,-0.61,-0.55,3.62,-0.22,1.15,46.73,16.35,25.71,4
3700631,0.59,-0.61,-0.55,3.33,0.56,1.71,46.73,16.35,25.71,4
3700641,0.59,-0.61,-0.55,2.91,1.04,2.2,46.73,16.35,25.71,4
3700651,0.6,-0.61,-0.55,2.48,1.12,2.6,46.89,16.36,25.48,4
3700663,0.6,-0.61,-0.54,1.96,1.31,3.32,46.89,16.36,25.48,4
3700675,0.6,-0.61,-0.54,1.79,1.61,3.64,46.89,16.36,25.48,4
3700685,0.6,-0.61,-0.54,1.76,1.96,3.67,46.89,16.36,25.48,4
3700697,0.61,-0.61,-0.54,2.36,2.56,3.01,47.01,16.45,25.43,4
3700707,0.6,-0.61,-0.54,2.92,2.98,2.52,47.01,16.45,25.43,4
3700717,0.6,-0.61,-0.54,3.53,3.57,2.06,47.01,16.45,25.43,4
3700728,0.6,-0.61,-0.54,4.15,4.18,1.6,47.01,16.45,25.43,4
3700739,0.6,-0.61,-0.54,4.82,4.77,0.95,47.01,16.45,25.43,4
3700751,0.6,-0.61,-0.55,4.61,4.5,0.76,46.99,16.41,25.35,4
3700761,0.6,-0.6,-0.55,4.4,4.16,0.51,46.99,16.41,25.35,4
3700773,0.6,-0.6,-0.55,4.2,3.78,0.02,46.99,16.41,25.35,4
3700784,0.6,-0.6,-0.55,4.15,3.52,-0.3,46.99,16.41,25.35,4
3700797,0.6,-0.6,-0.55,4.2,3.28,-0.68,47.08,16.45,25.3,4
3700809,0.6,-0.6,-0.55,4.49,2.77,-1.32,47.08,16.45,25.3,4
3700819,0.59,-0.6,-0.55,4.82,2.71,-1.58,47.08,16.45,25.3,4
3700829,0.59,-0.6,-0.55,5.29,2.76,-1.79,47.08,16.45,25.3,4
3700840,0.59,-0.6,-0.56,5.81,2.93,-1.97,47.08,16.45,25.3,4
3700853,0.59,-0.6,-0.56,6.38,3.26,-2.37,47.04,16.34,25.28,4
3700865,0.59,-0.61,-0.56,6.34,3.34,-2.36,47.04,16.34,25.28,4
3700876,0.59,-0.6,-0.56,5.46,3.74,-1.63,47.04,16.34,25.28,4
3700887,0.58,-0.6,-0.57,4.98,3.72,-1.12,47.04,16.34,25.28,4
3700898,0.59,-0.59,-0.56,4.81,3.52,-0.65,47.07,16.21,25.31,4
3700911,0.59,-0.6,-0.56,4.85,2.57,-0.33,47.07,16.21,25.31,4
3700922,0.59,-0.6,-0.57,4.65,2.1,-0.25,47.07,16.21,25.31,4
3700933,0.59,-0.6,-0.57,4.29,1.65,-0.25,47.07,16.21,25.31,4
3700948,0.58,-0.6,-0.57,3.44,1.06,-0.03,47.17,16.09,25.56,4
3700960,0.58,-0.59,-0.57,3.28,1.09,0.29,47.17,16.09,25.56,4
3700970,0.58,-0.59,-0.57,3.67,1.44,1.29,47.17,16.09,25.56,4
3700981,0.58,-0.6,-0.57,3.85,1.58,1.36,47.17,16.09,25.56,4
3700993,0.59,-0.61,-0.57,3.39,1.45,1.22,47.17,16.09,25.56,4
3701005,0.59,-0.61,-0.57,1.32,1.37,1.55,47.25,16.0,25.9,4
3701016,0.59,-0.6,-0.57,0.35,1.74,1.81,47.25,16.0,25.9,4
3701026,0.58,-0.6,-0.57,-0.25,2.19,2.18,47.25,16.0,25.9,4
3701036,0.58,-0.59,-0.58,-0.55,2.71,2.67,47.25,16.0,25.9,4
3701047,0.58,-0.59,-0.57,-0.63,3.52,2.81,47.29,15.92,26.05,4
3701059,0.57,-0.6,-0.58,-1.04,4.69,3.17,47.29,15.92,26.05,4
3701070,0.57,-0.59,-0.58,-1.46,5.49,3.51,47.29,15.92,26.05,4
3701084,0.56,-0.59,-0.59,-2.04,6.0,4.31,47.29,15.92,26.05,4
3701097,0.55,-0.59,-0.58,-4.37,4.47,5.76,47.32,15.84,25.93,4
3701110,0.56,-0.59,-0.57,-7.84,2.93,8.69,47.32,15.84,25.93,4
3701122,0.57,-0.6,-0.57,-8.25,3.67,9.46,47.32,15.84,25.93,4
3701135,0.61,-0.6,-0.56,-8.55,3.89,9.36,47.32,15.84,25.93,4
3701146,0.62,-0.6,-0.56,-8.56,2.97,8.24,47.35,15.78,26.21,4
3701157,0.62,-0.59,-0.57,-8.21,2.11,6.63,47.35,15.78,26.21,4
3701167,0.62,-0.59,-0.57,-7.69,1.17,4.8,47.35,15.78,26.21,4
3701179,0.61,-0.59,-0.57,-7.12,-2.04,0.87,47.35,15.78,26.21,4
3701190,0.61,-0.59,-0.57,-7.05,-3.92,-1.11,47.35,15.78,26.21,4
3701203,0.6,-0.59,-0.57,-6.99,-6.73,-3.92,47.38,15.76,26.05,4
3701214,0.6,-0.6,-0.56,-6.99,-8.27,-4.78,47.38,15.76,26.05,4
3701226,0.59,-0.6,-0.56,-7.03,-9.91,-5.33,47.38,15.76,26.05,4
3701237,0.58,-0.61,-0.56,-6.63,-10.68,-4.98,47.38,15.76,26.05,4
3701249,0.57,-0.61,-0.55,-6.24,-9.71,-4.43,47.45,15.81,26.03,4
3701261,0.57,-0.62,-0.55,-5.88,-8.5,-3.91,47.45,15.81,26.03,4
3701273,0.57,-0.63,-0.54,-5.75,-6.19,-2.69,47.45,15.81,26.03,4
3701285,0.57,-0.63,-0.53,-5.64,-5.08,-1.72,47.45,15.81,26.03,4
3701296,0.57,-0.63,-0.53,-5.24,-4.07,-0.52,47.52,15.88,26.02,4
3701307,0.58,-0.63,-0.53,-4.48,-3.55,0.81,47.52,15.88,26.02,4
3701319,0.58,-0.62,-0.53,-3.38,-2.85,2.65,47.52,15.88,26.02,4
3701333,0.58,-0.62,-0.54,-0.76,-2.25,4.56,47.52,15.88,26.02,4
3701344,0.59,-0.62,-0.55,-0.43,-2.47,4.31,47.52,15.88,26.02,4
3701355,0.59,-0.62,-0.55,-0.77,-2.7,3.66,47.6,16.07,25.93,4
3701367,0.59,-0.61,-0.54,-2.07,-2.62,3.07,47.6,16.07,25.93,4
3701378,0.59,-0.61,-0.54,-2.21,-2.31,3.24,47.6,16.07,25.93,4
3701388,0.59,-0.61,-0.54,-1.94,-2.03,3.51,47.6,16.07,25.93,4
3701400,0.59,-0.61,-0.54,-0.96,-1.13,4.03,47.61,16.07,25.67,4
3701411,0.59,-0.62,-0.53,-0.68,-0.37,4.29,47.61,16.07,25.67,4
3701422,0.59,-0.62,-0.53,-0.72,0.36,4.66,47.61,16.07,25.67,4
3701436,0.59,-0.62,-0.53,-0.46,1.26,5.6,47.61,16.07,25.67,4
3701447,0.59,-0.61,-0.53,0.15,1.6,5.9,47.65,16.13,25.79,4
3701457,0.59,-0.61,-0.53,0.93,1.84,6.03,47.65,16.13,25.79,4
3701467,0.6,-0.61,-0.54,1.46,1.92,5.84,47.65,16.13,25.79,4
3701479,0.6,-0.61,-0.54,1.53,1.75,4.85,47.65,16.13,25.79,4
3701489,0.6,-0.62,-0.54,1.17,1.42,4.57,47.65,16.13,25.79,4
3701500,0.6,-0.62,-0.54,0.99,1.14,4.55,47.66,16.13,25.79,4
3701510,0.6,-0.61,-0.54,1.11,1.0,4.65,47.66,16.13,25.79,4
3701521,0.6,-0.61,-0.54,1.65,0.96,4.73,47.66,16.13,25.79,4
3701533,0.6,-0.61,-0.54,1.83,0.78,4.56,47.66,16.13,25.79,4
3701545,0.6,-0.61,-0.54,1.73,0.43,4.28,47.77,15.99,25.87,4
3701556,0.61,-0.61,-0.54,1.43,-0.04,3.97,47.77,15.99,25.87,4
3701568,0.61,-0.61,-0.54,1.09,-0.57,3.44,47.77,15.99,25.87,4
3701580,0.61,-0.61,-0.54,1.07,-1.48,2.47,47.77,15.99,25.87,4
3701591,0.59,-0.61,-0.54,1.13,-1.91,2.4,47.77,15.99,25.87,4
3701602,0.58,-0.6,-0.54,1.25,-2.23,2.97,47.79,15.84,25.91,4
3701615,0.58,-0.6,-0.54,1.71,-1.93,6.22,47.79,15.84,25.91,4
3701626,0.58,-0.6,-0.54,1.97,-1.37,8.6,47.79,15.84,25.91,4
3701637,0.58,-0.6,-0.55,2.04,-0.71,10.96,47.79,15.84,25.91,4
3701651,0.59,-0.6,-0.55,1.14,0.85,14.77,47.87,15.7,25.98,4
3701661,0.6,-0.6,-0.55,-0.06,1.39,15.92,47.87,15.7,25.98,4
3701671,0.61,-0.59,-0.56,-1.52,1.75,16.35,47.87,15.7,25.98,4
3701681,0.62,-0.59,-0.56,-2.91,2.04,16.12,47.87,15.7,25.98,4
3701691,0.63,-0.59,-0.55,-4.14,2.33,15.38,47.87,15.7,25.98,4
3701704,0.64,-0.59,-0.55,-6.22,1.17,13.16,47.93,15.51,25.86,4
3701714,0.64,-0.58,-0.55,-6.84,-0.26,11.66,47.93,15.51,25.86,4
3701726,0.65,-0.58,-0.55,-7.32,-3.82,8.06,47.93,15.51,25.86,4
3701737,0.64,-0.58,-0.54,-7.56,-5.7,6.15,47.93,15.51,25.86,4
3701748,0.63,-0.59,-0.54,-7.71,-7.19,4.45,47.92,15.4,25.76,4
3701759,0.63,-0.59,-0.53,-7.59,-7.96,3.2,47.92,15.4,25.76,4
3701771,0.62,-0.59,-0.52,-6.57,-8.32,2.54,47.92,15.4,25.76,4
3701782,0.62,-0.6,-0.52,-5.72,-8.24,2.83,47.92,15.4,25.76,4
3701793,0.62,-0.6,-0.51,-4.87,-7.72,3.34,47.92,15.4,25.76,4
3701806,0.62,-0.61,-0.51,-4.31,-6.49,5.15,47.89,15.3,25.61,4
3701817,0.62,-0.61,-0.5,-4.46,-6.38,6.67,47.89,15.3,25.61,4
3701828,0.62,-0.61,-0.5,-4.24,-6.28,8.4,47.89,15.3,25.61,4
3701840,0.62,-0.6,-0.5,-2.89,-5.57,11.5,47.89,15.3,25.61,4
3701851,0.62,-0.6,-0.51,-2.3,-5.01,12.53,47.93,15.24,25.91,4
3701862,0.63,-0.6,-0.51,-2.02,-4.39,13.13,47.93,15.24,25.91,4
3701875,0.65,-0.59,-0.51,-2.08,-3.84,13.33,47.93,15.24,25.91,4
3701885,0.65,-0.59,-0.51,-2.28,-4.38,13.02,47.93,15.24,25.91,4
3701896,0.65,-0.59,-0.51,-2.12,-4.78,12.08,48.03,15.04,25.84,4
3701907,0.64,-0.58,-0.52,-1.1,-3.63,9.63,48.03,15.04,25.84,4
3701918,0.64,-0.58,-0.52,-0.99,-3.27,8.84,48.03,15.04,25.84,4
3701930,0.64,-0.58,-0.52,-0.87,-2.91,8.52,48.03,15.04,25.84,4
3701941,0.64,-0.57,-0.52,-0.57,-1.83,8.48,48.03,15.04,25.84,4
3701953,0.65,-0.57,-0.52,-0.79,-1.6,8.51,48.12,14.83,25.77,4
3701964,0.66,-0.58,-0.52,-1.59,-1.96,8.53,48.12,14.83,25.77,4
3701977,0.67,-0.58,-0.51,-3.75,-3.48,8.35,48.12,14.83,25.77,4
3701988,0.67,-0.58,-0.5,-4.39,-3.98,8.1,48.12,14.83,25.77,4
3702000,0.67,-0.58,-0.5,-4.62,-4.37,7.78,48.11,14.7,25.73,4
3702012,0.66,-0.58,-0.49,-3.73,-4.57,7.02,48.11,14.7,25.73,4
3702023,0.65,-0.58,-0.49,-2.94,-4.61,6.58,48.11,14.7,25.73,4
3702037,0.65,-0.58,-0.49,-1.18,-4.21,6.64,48.11,14.7,25.73,4
3702048,0.65,-0.58,-0.49,-0.38,-3.88,6.64,48.33,14.57,25.53,4
3702060,0.65,-0.58,-0.5,0.4,-3.06,6.47,48.33,14.57,25.53,4
3702072,0.65,-0.58,-0.5,1.25,-1.01,5.71,48.33,14.57,25.53,4
3702083,0.66,-0.58,-0.5,1.39,-0.04,5.17,48.33,14.57,25.53,4
3702094,0.67,-0.58,-0.5,1.28,0.7,4.59,48.53,14.46,25.34,4
3702106,0.68,-0.57,-0.51,0.85,1.0,4.02,48.53,14.46,25.34,4
3702117,0.68,-0.57,-0.51,0.4,1.01,2.96,48.53,14.46,25.34,4
3702130,0.68,-0.57,-0.5,-0.33,-0.56,0.87,48.53,14.46,25.34,4
3702141,0.67,-0.57,-0.5,-0.63,-1.37,0.13,48.53,14.46,25.34,4
3702152,0.67,-0.58,-0.5,-0.63,-1.81,-0.41,48.68,14.22,25.21,4
3702166,0.66,-0.58,-0.49,0.23,-2.17,-0.83,48.68,14.22,25.21,4
3702177,0.66,-0.58,-0.49,1.0,-1.89,-0.78,48.68,14.22,25.21,4
3702188,0.66,-0.58,-0.49,1.67,-1.47,-0.71,48.68,14.22,25.21,4
3702201,0.66,-0.58,-0.49,1.92,-1.16,-0.28,48.73,14.13,25.29,4
3702211,0.67,-0.58,-0.49,1.78,-1.23,-0.16,48.73,14.13,25.29,4
3702222,0.67,-0.58,-0.49,1.71,-1.25,-0.1,48.73,14.13,25.29,4
3702234,0.66,-0.58,-0.49,2.31,-1.15,0.31,48.73,14.13,25.29,4
3702245,0.66,-0.57,-0.49,3.02,-0.96,0.47,48.73,14.08,25.05,4
3702257,0.67,-0.57,-0.5,3.76,-0.93,0.39,48.73,14.08,25.05,4
3702269,0.66,-0.57,-0.51,4.15,-1.59,-0.5,48.73,14.08,25.05,4
3702281,0.66,-0.57,-0.51,3.75,-1.87,-0.89,48.73,14.08,25.05,4
3702295,0.66,-0.57,-0.51,2.47,-1.82,-1.02,48.73,13.99,25.09,4
3702307,0.66,-0.57,-0.5,2.13,-1.57,-0.78,48.73,13.99,25.09,4
3702321,0.66,-0.58,-0.5,2.18,-0.68,0.03,48.73,13.99,25.09,4
3702332,0.66,-0.58,-0.5,2.44,-0.1,0.38,48.73,13.99,25.09,4
3702347,0.66,-0.58,-0.5,2.44,0.71,0.59,48.71,13.98,24.98,4
3702357,0.66,-0.58,-0.5,2.17,0.85,0.49,48.71,13.98,24.98,4
3702367,0.66,-0.57,-0.5,2.0,0.99,0.31,48.71,13.98,24.98,4
3702377,0.66,-0.57,-0.5,1.95,0.97,0.39,48.71,13.98,24.98,4
3702388,0.66,-0.57,-0.5,2.27,0.55,0.67,48.71,13.98,24.98,4
3702400,0.67,-0.57,-0.5,2.53,0.35,0.58,48.73,14.03,25.03,4
3702410,0.67,-0.58,-0.51,2.61,0.06,0.31,48.73,14.03,25.03,4
3702420,0.67,-0.58,-0.51,2.32,-0.44,-0.05,48.73,14.03,25.03,4
3702431,0.66,-0.58,-0.5,1.34,-1.55,-0.31,48.73,14.03,25.03,4
3702442,0.65,-0.58,-0.5,1.34,-1.49,-0.08,48.73,14.03,25.03,4
3702453,0.65,-0.58,-0.49,1.7,-1.22,0.24,48.69,13.99,25.15,4
3702466,0.66,-0.58,-0.5,2.93,-0.68,0.95,48.69,13.99,25.15,4
3702478,0.66,-0.58,-0.5,3.43,-0.34,1.28,48.69,13.99,25.15,4
3702490,0.66,-0.58,-0.5,3.58,0.62,1.53,48.69,13.99,25.15,4
3702502,0.67,-0.57,-0.51,3.4,0.74,1.28,48.68,13.95,25.27,4
3702514,0.67,-0.57,-0.51,3.15,0.73,0.96,48.68,13.95,25.27,4
3702525,0.66,-0.57,-0.51,2.85,0.71,0.49,48.68,13.95,25.27,4
3702536,0.66,-0.57,-0.51,2.83,0.68,0.38,48.68,13.95,25.27,4
3702547,0.66,-0.57,-0.51,2.81,0.48,0.22,48.69,13.94,25.12,4
3702557,0.66,-0.57,-0.51,2.77,0.09,0.02,48.69,13.94,25.12,4
3702567,0.66,-0.57,-0.51,2.6,-0.24,-0.02,48.69,13.94,25.12,4
3702579,0.66,-0.57,-0.51,1.9,-0.28,0.31,48.69,13.94,25.12,4
3702590,0.66,-0.57,-0.51,1.55,0.05,0.49,48.69,13.94,25.12,4
3702601,0.66,-0.57,-0.5,1.31,0.34,0.53,48.68,13.93,25.03,4
3702613,0.66,-0.57,-0.5,1.48,0.63,0.38,48.68,13.93,25.03,4
3702623,0.66,-0.57,-0.5,1.7,0.72,0.36,48.68,13.93,25.03,4
3702633,0.66,-0.57,-0.5,1.95,0.87,0.48,48.68,13.93,25.03,4
3702644,0.66,-0.57,-0.5,2.24,1.02,0.66,48.54,13.83,25.1,4
3702656,0.66,-0.57,-0.51,2.76,0.45,0.83,48.54,13.83,25.1,4
3702667,0.66,-0.57,-0.51,2.94,-0.0,0.62,48.54,13.83,25.1,4
3702681,0.66,-0.57,-0.51,2.88,-0.84,-0.08,48.54,13.83,25.1,4
3702693,0.66,-0.57,-0.51,2.43,-1.07,-0.41,48.63,13.78,25.03,4
3702704,0.66,-0.57,-0.51,1.95,-1.02,-0.52,48.63,13.78,25.03,4
3702716,0.66,-0.57,-0.51,1.64,-0.82,-0.43,48.63,13.78,25.03,4
3702727,0.66,-0.57,-0.51,1.68,-0.95,-0.2,48.63,13.78,25.03,4
3702741,0.66,-0.57,-0.51,1.91,-0.95,0.18,48.63,13.78,25.03,4
3702752,0.66,-0.57,-0.51,1.92,-0.93,0.29,48.64,13.74,24.96,4
3702763,0.65,-0.57,-0.51,1.85,-0.78,0.36,48.64,13.74,24.96,4
3702775,0.66,-0.57,-0.51,1.71,-0.61,0.4,48.64,13.74,24.96,4
3702787,0.66,-0.57,-0.51,1.77,-0.8,0.42,48.64,13.74,24.96,4
3702798,0.66,-0.57,-0.51,1.83,-1.19,0.44,48.56,13.58,24.91,4
3702810,0.66,-0.57,-0.51,1.9,-1.59,0.5,48.56,13.58,24.91,4
3702821,0.66,-0.57,-0.51,1.8,-1.54,0.55,48.56,13.58,24.91,4
3702834,0.66,-0.57,-0.51,1.38,-1.71,0.2,48.56,13.58,24.91,4
3702846,0.66,-0.57,-0.51,1.17,-1.74,0.13,48.56,13.58,24.88,4
3702858,0.66,-0.57,-0.51,1.1,-1.76,0.26,48.56,13.58,24.88,4
3702870,0.66,-0.57,-0.51,1.83,-1.34,0.89,48.56,13.58,24.88,4
3702880,0.66,-0.57,-0.51,2.37,-0.95,1.13,48.56,13.58,24.88,4
3702891,0.66,-0.57,-0.51,2.66,-0.82,1.15,48.56,13.58,24.88,4
3702904,0.66,-0.57,-0.51,2.09,-1.49,0.69,48.53,13.48,24.93,4
3702916,0.66,-0.57,-0.51,1.46,-1.78,0.44,48.53,13.48,24.93,4
3702928,0.66,-0.57,-0.51,0.74,-1.8,0.38,48.53,13.48,24.93,4
3702939,0.66,-0.57,-0.51,0.78,-1.98,0.38,48.53,13.48,24.93,4
3702950,0.66,-0.57,-0.51,1.01,-2.04,0.44,48.48,13.49,24.97,4
3702963,0.66,-0.57,-0.51,1.42,-1.58,0.87,48.48,13.49,24.97,4
3702974,0.66,-0.57,-0.51,1.44,-1.34,1.2,48.48,13.49,24.97,4
3702985,0.66,-0.57,-0.51,1.43,-1.23,1.32,48.48,13.49,24.97,4
3702997,0.66,-0.57,-0.51,0.97,-1.94,0.87,48.46,13.55,25.05,4
3703008,0.66,-0.57,-0.51,0.62,-2.43,0.66,48.46,13.55,25.05,4
3703020,0.66,-0.57,-0.51,0.39,-2.62,0.64,48.46,13.55,25.05,4
3703034,0.66,-0.57,-0.51,0.26,-2.68,1.19,48.46,13.55,25.05,4
3703045,0.67,-0.57,-0.51,0.43,-2.52,1.17,48.39,13.54,24.99,4
3703057,0.67,-0.57,-0.51,0.32,-2.62,0.78,48.39,13.54,24.99,4
3703068,0.67,-0.57,-0.5,0.06,-2.92,0.52,48.39,13.54,24.99,4
3703080,0.66,-0.57,-0.5,-0.06,-3.15,0.42,48.39,13.54,24.99,4
3703095,0.66,-0.57,-0.5,0.41,-2.89,0.89,48.4,13.47,24.7,4
3703106,0.66,-0.56,-0.5,0.93,-2.76,1.14,48.4,13.47,24.7,4
3703117,0.66,-0.57,-0.51,1.38,-2.47,1.06,48.4,13.47,24.7,4
3703128,0.67,-0.57,-0.51,0.99,-2.33,0.85,48.4,13.47,24.7,4
3703140,0.67,-0.57,-0.51,0.36,-2.14,0.69,48.4,13.47,24.7,4
3703152,0.67,-0.57,-0.5,-0.44,-2.07,0.57,48.27,13.39,24.88,4
3703163,0.67,-0.57,-0.5,-0.52,-2.19,0.56,48.27,13.39,24.88,4
3703174,0.67,-0.57,-0.5,-0.38,-2.41,0.53,48.27,13.39,24.88,4
3703188,0.67,-0.57,-0.5,0.26,-2.83,0.2,48.27,13.39,24.88,4
3703199,0.67,-0.57,-0.5,0.43,-3.21,-0.03,48.37,13.3,24.8,4
3703210,0.67,-0.57,-0.5,0.39,-3.69,-0.25,48.37,13.3,24.8,4
3703222,0.66,-0.57,-0.5,0.09,-4.11,-0.57,48.37,13.3,24.8,4
3703233,0.66,-0.57,-0.5,0.01,-3.92,-0.51,48.37,13.3,24.8,4
3703244,0.66,-0.57,-0.49,0.14,-3.38,-0.23,48.37,13.23,24.61,4
3703255,0.66,-0.57,-0.49,0.69,-2.34,0.73,48.37,13.23,24.61,4
3703266,0.67,-0.57,-0.49,0.76,-2.22,0.82,48.37,13.23,24.61,4
3703277,0.67,-0.57,-0.49,0.72,-2.43,0.69,48.37,13.23,24.61,4
3703291,0.66,-0.57,-0.5,0.67,-3.12,0.55,48.37,13.23,24.61,4
3703302,0.66,-0.57,-0.5,0.89,-3.28,0.69,48.35,13.21,24.59,4
3703315,0.66,-0.57,-0.5,1.65,-2.95,0.98,48.35,13.21,24.59,4
3703326,0.68,-0.57,-0.5,1.79,-2.97,1.0,48.35,13.21,24.59,4
3703336,0.68,-0.57,-0.5,1.67,-3.19,0.88,48.35,13.21,24.59,4
3703347,0.68,-0.57,-0.5,1.21,-3.81,0.58,48.35,13.16,24.89,4
3703358,0.68,-0.57,-0.5,0.18,-5.39,-0.15,48.35,13.16,24.89,4
3703369,0.67,-0.57,-0.49,0.09,-5.74,-0.42,48.35,13.16,24.89,4
3703381,0.67,-0.57,-0.49,0.26,-5.79,-0.65,48.35,13.16,24.89,4
3703391,0.67,-0.57,-0.49,0.48,-5.71,-0.81,48.35,13.16,24.89,4
3703404,0.67,-0.57,-0.49,0.84,-5.75,-1.21,48.37,13.15,24.46,4
3703416,0.66,-0.57,-0.49,0.74,-5.6,-1.25,48.37,13.15,24.46,4
3703427,0.66,-0.57,-0.49,0.49,-4.42,-0.55,48.37,13.15,24.46,4
3703438,0.66,-0.57,-0.49,0.64,-3.34,0.03,48.37,13.15,24.46,4
3703449,0.67,-0.58,-0.49,0.81,-2.23,0.6,48.53,13.17,24.24,4
3703462,0.68,-0.58,-0.49,0.9,-0.54,1.27,48.53,13.17,24.24,4
3703474,0.68,-0.58,-0.48,0.71,-0.27,1.38,48.53,13.17,24.24,4
3703485,0.68,-0.58,-0.48,0.52,-0.48,1.31,48.53,13.17,24.24,4
3703498,0.68,-0.57,-0.48,1.0,-1.51,0.68,48.67,13.09,24.12,4
3703510,0.68,-0.57,-0.49,1.54,-1.73,0.5,48.67,13.09,24.12,4
3703521,0.68,-0.57,-0.49,2.2,-2.42,0.09,48.67,13.09,24.12,4
3703532,0.68,-0.57,-0.49,2.05,-2.94,-0.2,48.67,13.09,24.12,4
3703543,0.67,-0.57,-0.49,1.65,-3.34,-0.38,48.68,13.19,24.06,4
3703555,0.67,-0.57,-0.49,0.81,-3.35,-0.17,48.68,13.19,24.06,4
3703566,0.66,-0.57,-0.48,0.63,-3.04,0.14,48.68,13.19,24.06,4
3703578,0.67,-0.57,-0.48,0.53,-2.95,0.48,48.68,13.19,24.06,4
3703593,0.68,-0.57,-0.49,0.42,-3.2,0.95,48.7,13.23,23.78,4
3703604,0.68,-0.57,-0.49,0.45,-3.08,1.01,48.7,13.23,23.78,4
3703615,0.68,-0.57,-0.48,0.32,-3.22,1.53,48.7,13.23,23.78,4
3703626,0.68,-0.57,-0.49,0.33,-3.46,1.38,48.7,13.23,23.78,4
3703638,0.68,-0.58,-0.48,0.39,-3.29,1.11,48.7,13.23,23.78,4
3703650,0.68,-0.58,-0.48,-0.13,-3.43,0.7,48.75,13.26,23.74,4
3703661,0.67,-0.58,-0.47,-0.01,-3.11,0.68,48.75,13.26,23.74,4
3703673,0.67,-0.57,-0.47,0.48,-2.74,0.76,48.75,13.26,23.74,4
3703686,0.67,-0.57,-0.48,1.45,-2.2,1.61,48.75,13.26,23.74,4
3703697,0.67,-0.57,-0.48,1.83,-1.73,1.94,48.7,13.22,23.88,4
3703710,0.68,-0.57,-0.48,1.56,-1.03,2.2,48.7,13.22,23.88,4
3703721,0.68,-0.57,-0.48,1.16,-0.75,2.18,48.7,13.22,23.88,4
3703732,0.68,-0.57,-0.48,0.88,-0.53,2.04,48.7,13.22,23.88,4
3703744,0.68,-0.57,-0.48,0.63,-0.32,1.91,48.73,13.25,23.66,4
3703755,0.68,-0.57,-0.48,0.8,-0.47,1.89,48.73,13.25,23.66,4
3703767,0.68,-0.57,-0.48,1.03,-0.75,1.7,48.73,13.25,23.66,4
3703780,0.68,-0.57,-0.48,0.97,-1.52,0.98,48.73,13.25,23.66,4
3703791,0.68,-0.57,-0.48,0.62,-1.9,0.58,48.67,13.21,23.74,4
3703803,0.68,-0.57,-0.48,0.2,-2.2,0.21,48.67,13.21,23.74,4
3703815,0.68,-0.57,-0.48,-0.36,-2.33,-0.04,48.67,13.21,23.74,4
3703827,0.68,-0.57,-0.48,-0.15,-2.14,-0.03,48.67,13.21,23.74,4
3703841,0.68,-0.57,-0.48,0.52,-2.1,0.09,48.7,13.24,23.84,4
3703852,0.68,-0.57,-0.48,0.56,-2.23,0.14,48.7,13.24,23.84,4
3703862,0.68,-0.58,-0.48,0.47,-2.42,0.03,48.7,13.24,23.84,4
3703875,0.68,-0.57,-0.48,0.41,-2.89,-0.24,48.7,13.24,23.84,4
3703887,0.68,-0.57,-0.48,0.59,-3.14,-0.41,48.7,13.24,23.84,4
3703899,0.67,-0.57,-0.48,0.88,-3.1,-0.24,48.86,13.29,23.74,4
3703910,0.68,-0.57,-0.48,0.78,-2.62,0.04,48.86,13.29,23.74,4
3703922,0.68,-0.57,-0.48,0.55,-2.08,0.21,48.86,13.29,23.74,4
3703935,0.69,-0.57,-0.48,-0.14,-2.05,-0.12,48.86,13.29,23.74,4
3703947,0.69,-0.57,-0.47,-0.48,-2.36,-0.35,48.99,13.38,23.82,4
3703960,0.68,-0.58,-0.47,-0.56,-2.6,-0.55,48.99,13.38,23.82,4
3703972,0.68,-0.58,-0.46,-0.39,-2.87,-0.41,48.99,13.38,23.82,4
3703983,0.68,-0.58,-0.46,-0.03,-3.36,-0.26,48.99,13.38,23.82,4
3703996,0.69,-0.58,-0.47,1.17,-4.02,-0.13,49.05,13.4,23.71,4
3704007,0.68,-0.57,-0.47,1.61,-4.04,-0.08,49.05,13.4,23.71,4
3704018,0.68,-0.57,-0.47,1.78,-3.85,-0.13,49.05,13.4,23.71,4
3704030,0.68,-0.57,-0.47,1.36,-3.42,-0.08,49.05,13.4,23.71,4
3704042,0.68,-0.58,-0.47,0.89,-3.1,0.05,49.13,13.43,23.74,4
3704053,0.69,-0.58,-0.47,0.08,-2.88,0.34,49.13,13.43,23.74,4
3704064,0.68,-0.57,-0.47,0.09,-2.96,0.37,49.13,13.43,23.74,4
3704076,0.68,-0.57,-0.47,0.3,-3.08,0.47,49.13,13.43,23.74,4
3704090,0.68,-0.57,-0.47,0.65,-2.73,0.91,49.13,13.43,23.74,4
3704101,0.69,-0.57,-0.47,0.76,-2.58,0.95,49.17,13.46,23.68,4
3704113,0.69,-0.57,-0.47,0.29,-3.36,0.53,49.17,13.46,23.68,4
3704124,0.68,-0.58,-0.47,0.05,-3.57,0.41,49.17,13.46,23.68,4
3704136,0.68,-0.58,-0.46,-0.07,-3.53,0.5,49.17,13.46,23.68,4
3704148,0.68,-0.58,-0.46,-0.02,-3.9,1.22,49.11,13.44,23.62,4
3704159,0.68,-0.57,-0.46,0.31,-4.27,1.5,49.11,13.44,23.62,4
3704170,0.68,-0.57,-0.46,0.67,-4.7,1.68,49.11,13.44,23.62,4
3704184,0.68,-0.57,-0.46,0.98,-4.84,2.55,49.11,13.44,23.62,4
3704195,0.68,-0.58,-0.46,1.12,-4.15,3.17,49.14,13.48,23.7,4
3704206,0.69,-0.58,-0.46,1.27,-3.13,3.5,49.14,13.48,23.7,4
3704218,0.7,-0.58,-0.46,1.2,-2.21,2.87,49.14,13.48,23.7,4
3704230,0.7,-0.57,-0.46,1.11,-2.19,2.36,49.14,13.48,23.7,4
3704241,0.7,-0.57,-0.47,1.08,-2.18,1.9,49.15,13.47,23.4,4
3704253,0.69,-0.57,-0.46,0.94,-1.9,1.38,49.15,13.47,23.4,4
3704264,0.7,-0.57,-0.46,0.69,-1.73,1.25,49.15,13.47,23.4,4
3704277,0.7,-0.57,-0.46,0.23,-2.03,1.14,49.15,13.47,23.4,4
3704288,0.7,-0.57,-0.45,0.41,-2.26,0.93,49.15,13.47,23.4,4
3704299,0.7,-0.57,-0.45,0.78,-2.44,0.71,49.24,13.46,23.35,4
3704312,0.69,-0.57,-0.46,1.51,-2.47,0.47,49.24,13.46,23.35,4
3704324,0.69,-0.57,-0.46,1.74,-2.41,0.47,49.24,13.46,23.35,4
3704335,0.69,-0.57,-0.46,1.81,-2.36,0.48,49.24,13.46,23.35,4
3704349,0.69,-0.57,-0.46,1.82,-2.05,0.39,49.28,13.49,23.22,4
3704360,0.69,-0.57,-0.46,1.62,-2.0,0.25,49.28,13.49,23.22,4
3704371,0.69,-0.57,-0.46,1.01,-1.72,-0.01,49.28,13.49,23.22,4
3704382,0.69,-0.57,-0.46,0.61,-1.31,0.05,49.28,13.49,23.22,4
3704393,0.69,-0.57,-0.46,0.3,-0.71,0.27,49.28,13.52,23.09,4
3704406,0.7,-0.57,-0.45,0.11,0.3,0.73,49.28,13.52,23.09,4
3704417,0.7,-0.58,-0.45,0.33,0.44,0.84,49.28,13.52,23.09,4
3704427,0.7,-0.58,-0.45,0.78,0.19,0.69,49.28,13.52,23.09,4
3704437,0.7,-0.58,-0.45,1.36,0.01,0.42,49.28,13.52,23.09,4
3704449,0.7,-0.58,-0.45,2.1,-0.91,0.19,49.32,13.53,23.07,4
3704460,0.69,-0.57,-0.45,2.31,-1.29,0.18,49.32,13.53,23.07,4
3704470,0.69,-0.57,-0.46,2.65,-1.42,0.11,49.32,13.53,23.07,4
3704480,0.69,-0.57,-0.46,2.95,-1.55,0.03,49.32,13.53,23.07,4
3704491,0.69,-0.57,-0.46,3.01,-1.59,0.07,49.34,13.56,23.19,4
3704502,0.69,-0.57,-0.46,2.81,-1.37,0.23,49.34,13.56,23.19,4
3704512,0.7,-0.57,-0.46,2.42,-1.11,0.31,49.34,13.56,23.19,4
3704522,0.7,-0.57,-0.46,1.68,-1.15,0.19,49.34,13.56,23.19,4
3704532,0.71,-0.57,-0.46,1.08,-1.34,-0.15,49.34,13.56,23.19,4
3704545,0.7,-0.57,-0.46,0.2,-1.85,-0.92,49.37,13.57,23.16,4
3704556,0.69,-0.57,-0.45,0.1,-2.0,-1.14,49.37,13.57,23.16,4
3704567,0.69,-0.57,-0.45,0.3,-2.0,-1.1,49.37,13.57,23.16,4
3704579,0.69,-0.58,-0.45,1.43,-1.94,-0.15,49.37,13.57,23.16,4
3704591,0.69,-0.58,-0.45,2.05,-1.98,0.25,49.34,13.63,23.17,4
3704602,0.69,-0.58,-0.45,2.52,-1.92,0.53,49.34,13.63,23.17,4
3704614,0.69,-0.57,-0.46,2.52,-1.43,0.75,49.34,13.63,23.17,4
3704624,0.69,-0.57,-0.46,2.11,-1.14,0.78,49.34,13.63,23.17,4
3704634,0.69,-0.57,-0.46,1.66,-0.96,0.73,49.34,13.63,23.17,4
3704646,0.7,-0.57,-0.46,1.13,-1.2,0.24,49.51,13.57,23.29,4
3704657,0.7,-0.57,-0.46,1.11,-1.44,-0.11,49.51,13.57,23.29,4
3704669,0.7,-0.57,-0.46,1.17,-1.76,-0.38,49.51,13.57,23.29,4
3704679,0.7,-0.57,-0.46,1.28,-2.07,-0.55,49.51,13.57,23.29,4
3704692,0.69,-0.57,-0.46,1.32,-2.59,-0.69,49.53,13.61,23.32,4
3704703,0.69,-0.57,-0.46,1.26,-2.59,-0.6,49.53,13.61,23.32,4
3704715,0.69,-0.57,-0.46,1.03,-1.87,-0.37,49.53,13.61,23.32,4
3704726,0.7,-0.58,-0.45,0.83,-1.62,-0.18,49.53,13.61,23.32,4
3704738,0.7,-0.58,-0.45,0.66,-1.62,-0.17,49.53,13.61,23.32,4
3704751,0.69,-0.58,-0.45,0.49,-1.98,-0.43,49.56,13.62,23.29,4
3704762,0.69,-0.58,-0.45,0.63,-2.02,-0.47,49.56,13.62,23.29,4
3704775,0.69,-0.57,-0.45,1.64,-1.68,-0.09,49.56,13.62,23.29,4
3704786,0.69,-0.57,-0.45,2.17,-1.41,0.15,49.56,13.62,23.29,4
3704797,0.7,-0.58,-0.45,2.42,-1.38,0.34,49.49,13.62,23.21,4
3704811,0.7,-0.58,-0.46,1.88,-1.84,0.09,49.49,13.62,23.21,4
3704822,0.7,-0.58,-0.45,1.45,-1.96,-0.2,49.49,13.62,23.21,4
3704833,0.69,-0.57,-0.45,1.11,-1.86,-0.27,49.49,13.62,23.21,4
3704846,0.69,-0.57,-0.45,1.48,-1.21,0.04,49.55,13.6,23.15,4
3704856,0.7,-0.57,-0.45,1.89,-1.02,0.19,49.55,13.6,23.15,4
3704866,0.7,-0.57,-0.45,2.13,-1.02,0.19,49.55,13.6,23.15,4
3704876,0.7,-0.57,-0.45,2.2,-1.18,0.04,49.55,13.6,23.15,4
3704887,0.69,-0.57,-0.45,1.96,-1.37,-0.11,49.55,13.6,23.15,4
3704899,0.69,-0.57,-0.45,1.85,-1.26,0.19,49.55,13.63,23.15,4
3704910,0.69,-0.57,-0.45,1.93,-1.16,0.55,49.55,13.63,23.15,4
3704922,0.7,-0.57,-0.45,2.37,-1.39,0.69,49.55,13.63,23.15,4
3704934,0.7,-0.57,-0.46,2.37,-1.62,0.45,49.55,13.63,23.15,4
3704945,0.7,-0.57,-0.46,2.15,-1.85,0.07,49.61,13.62,23.11,4
3704957,0.69,-0.57,-0.45,1.36,-2.17,-0.61,49.61,13.62,23.11,4
3704969,0.69,-0.58,-0.45,1.09,-1.96,-0.55,49.61,13.62,23.11,4
3704982,0.69,-0.58,-0.44,1.55,-1.29,0.35,49.61,13.62,23.11,4
3704993,0.69,-0.58,-0.44,2.12,-0.93,0.85,49.6,13.61,22.86,4
3705005,0.69,-0.57,-0.45,2.77,-0.47,1.31,49.6,13.61,22.86,4
3705017,0.69,-0.57,-0.46,3.37,0.37,1.71,49.6,13.61,22.86,4
3705028,0.7,-0.57,-0.46,3.11,0.6,1.71,49.6,13.61,22.86,4
3705042,0.7,-0.57,-0.46,1.99,0.06,1.18,49.63,13.54,22.85,4
3705053,0.71,-0.57,-0.46,1.54,-0.51,0.65,49.63,13.54,22.85,4
3705064,0.7,-0.57,-0.46,1.27,-1.03,0.13,49.63,13.54,22.85,4
3705074,0.69,-0.57,-0.46,1.27,-1.38,-0.25,49.63,13.54,22.85,4
3705086,0.69,-0.57,-0.45,1.58,-1.67,-0.31,49.63,13.54,22.85,4
3705097,0.69,-0.57,-0.45,1.67,-1.74,-0.16,49.61,13.49,22.57,4
3705109,0.7,-0.57,-0.45,1.91,-1.38,-0.07,49.61,13.49,22.57,4
3705120,0.7,-0.57,-0.45,1.95,-1.25,-0.04,49.61,13.49,22.57,4
3705131,0.69,-0.57,-0.45,1.8,-1.12,0.01,49.61,13.49,22.57,4
3705142,0.69,-0.57,-0.45,1.69,-0.96,0.1,49.58,13.59,22.83,4
3705153,0.69,-0.57,-0.45,1.65,-0.35,0.51,49.58,13.59,22.83,4
3705164,0.69,-0.57,-0.45,1.76,-0.26,0.67,49.58,13.59,22.83,4
3705175,0.69,-0.57,-0.45,1.99,-0.23,0.8,49.58,13.59,22.83,4
3705190,0.7,-0.57,-0.46,2.53,-0.43,0.85,49.55,13.52,23.06,4
3705201,0.7,-0.57,-0.46,2.54,-0.6,0.66,49.55,13.52,23.06,4
3705213,0.7,-0.57,-0.46,1.92,-0.56,0.29,49.55,13.52,23.06,4
3705224,0.7,-0.57,-0.46,1.54,-0.69,0.11,49.55,13.52,23.06,4
3705234,0.69,-0.57,-0.45,1.34,-0.78,-0.02,49.55,13.52,23.06,4
3705245,0.69,-0.57,-0.45,1.32,-0.85,-0.09,49.49,13.58,22.96,4
3705256,0.7,-0.57,-0.45,1.56,-0.89,0.09,49.49,13.58,22.96,4
3705267,0.69,-0.57,-0.45,1.59,-1.03,0.15,49.49,13.58,22.96,4
3705278,0.69,-0.57,-0.45,1.67,-1.18,0.13,49.49,13.58,22.96,4
3705289,0.7,-0.57,-0.46,1.72,-1.3,0.08,49.28,13.54,23.15,4
3705300,0.69,-0.57,-0.46,1.62,-1.51,-0.06,49.28,13.54,23.15,4
3705312,0.69,-0.57,-0.45,1.48,-1.39,-0.14,49.28,13.54,23.15,4
3705326,0.69,-0.57,-0.45,1.61,-0.6,0.46,49.28,13.54,23.15,4
3705337,0.7,-0.58,-0.45,1.74,-0.47,0.87,49.28,13.54,23.15,4
3705348,0.7,-0.58,-0.45,1.84,-0.7,1.08,49.33,13.5,23.2,4
3705360,0.7,-0.57,-0.45,2.1,-1.24,0.81,49.33,13.5,23.2,4
3705372,0.69,-0.57,-0.45,2.24,-1.54,0.58,49.33,13.5,23.2,4
3705384,0.69,-0.57,-0.46,2.59,-2.09,0.55,49.33,13.5,23.2,4
3705397,0.69,-0.57,-0.46,2.76,-2.19,0.48,49.39,13.54,23.39,4
3705408,0.7,-0.57,-0.46,2.75,-2.1,0.32,49.39,13.54,23.39,4
3705419,0.7,-0.57,-0.46,1.73,-2.23,-0.11,49.39,13.54,23.39,4
3705430,0.7,-0.57,-0.46,1.1,-2.27,-0.2,49.39,13.54,23.39,4
3705441,0.69,-0.57,-0.46,0.64,-2.08,-0.14,49.33,13.48,23.42,4
3705453,0.69,-0.57,-0.45,0.43,-1.07,0.37,49.33,13.48,23.42,4
3705464,0.7,-0.57,-0.45,0.52,-0.86,0.6,49.33,13.48,23.42,4
3705476,0.7,-0.57,-0.45,0.7,-0.87,0.68,49.33,13.48,23.42,4
3705490,0.69,-0.57,-0.45,1.55,-0.89,0.58,49.27,13.41,23.52,4
3705502,0.69,-0.57,-0.45,1.94,-1.01,0.51,49.27,13.41,23.52,4
3705515,0.69,-0.57,-0.46,2.47,-0.87,0.39,49.27,13.41,23.52,4
3705527,0.7,-0.57,-0.46,2.37,-0.84,0.37,49.27,13.41,23.52,4
3705541,0.7,-0.57,-0.46,1.61,-1.0,0.17,49.28,13.26,23.36,4
3705553,0.69,-0.57,-0.45,1.3,-0.87,0.15,49.28,13.26,23.36,4
3705566,0.69,-0.57,-0.45,1.19,-0.29,0.26,49.28,13.26,23.36,4
3705578,0.7,-0.57,-0.45,1.33,-0.01,0.3,49.28,13.26,23.36,4
3705589,0.7,-0.57,-0.45,1.38,0.05,0.27,49.28,13.21,23.16,4
3705601,0.7,-0.57,-0.45,1.29,-0.34,0.03,49.28,13.21,23.16,4
3705611,0.7,-0.57,-0.45,1.43,-0.25,-0.13,49.28,13.21,23.16,4
3705622,0.7,-0.57,-0.45,1.62,-0.13,-0.07,49.28,13.21,23.16,4
3705634,0.69,-0.57,-0.45,1.78,-0.33,0.2,49.28,13.21,23.16,4
3705646,0.69,-0.57,-0.45,1.79,-0.6,0.29,49.31,13.22,23.11,4
3705657,0.69,-0.57,-0.45,1.83,-0.65,0.32,49.31,13.22,23.11,4
3705668,0.69,-0.57,-0.45,2.03,-0.7,0.41,49.31,13.22,23.11,4
3705679,0.69,-0.57,-0.46,2.25,-0.92,0.41,49.31,13.22,23.11,4
3705690,0.69,-0.57,-0.46,2.44,-1.04,0.42,49.27,13.3,23.09,4
3705702,0.7,-0.57,-0.46,2.23,-1.19,0.27,49.27,13.3,23.09,4
3705713,0.7,-0.57,-0.46,1.87,-1.32,0.06,49.27,13.3,23.09,4
3705724,0.7,-0.57,-0.46,1.5,-1.59,-0.17,49.27,13.3,23.09,4
3705736,0.7,-0.57,-0.46,1.23,-1.86,-0.38,49.27,13.3,23.09,4
3705749,0.69,-0.57,-0.45,1.33,-1.59,-0.21,49.25,13.31,22.9,4
3705759,0.69,-0.57,-0.45,1.51,-1.21,-0.0,49.25,13.31,22.9,4
3705769,0.7,-0.57,-0.45,1.59,-1.09,0.16,49.25,13.31,22.9,4
3705780,0.7,-0.57,-0.45,1.74,-1.51,0.05,49.25,13.31,22.9,4
3705792,0.7,-0.57,-0.45,1.73,-1.65,-0.01,49.3,13.32,22.81,4
3705803,0.69,-0.57,-0.45,1.65,-1.74,-0.01,49.3,13.32,22.81,4
3705816,0.69,-0.57,-0.45,1.72,-1.74,0.08,49.3,13.32,22.81,4
3705826,0.69,-0.57,-0.45,1.88,-1.51,0.16,49.3,13.32,22.81,4
3705836,0.69,-0.57,-0.45,2.0,-1.3,0.22,49.3,13.32,22.81,4
3705847,0.7,-0.57,-0.45,2.09,-1.18,0.18,49.36,13.32,23.03,4
3705859,0.7,-0.57,-0.46,1.92,-1.3,-0.06,49.36,13.32,23.03,4
3705870,0.7,-0.57,-0.46,1.66,-1.47,-0.15,49.36,13.32,23.03,4
3705884,0.7,-0.57,-0.46,1.18,-1.81,-0.44,49.36,13.32,23.03,4
3705895,0.7,-0.57,-0.45,1.12,-1.91,-0.56,49.48,13.39,22.96,4
3705907,0.69,-0.57,-0.45,1.13,-1.8,-0.53,49.48,13.39,22.96,4
3705919,0.69,-0.57,-0.45,1.57,-1.26,-0.01,49.48,13.39,22.96,4
3705930,0.69,-0.57,-0.45,1.89,-0.9,0.29,49.48,13.39,22.96,4
3705943,0.7,-0.57,-0.45,2.28,-0.46,0.53,49.53,13.4,22.95,4
3705954,0.7,-0.57,-0.46,2.19,-0.5,0.34,49.53,13.4,22.95,4
3705964,0.7,-0.57,-0.46,1.8,-0.81,0.07,49.53,13.4,22.95,4
3705975,0.7,-0.57,-0.46,1.35,-1.43,-0.2,49.53,13.4,22.95,4
3705988,0.7,-0.57,-0.45,1.02,-2.24,-0.73,49.69,13.44,23.02,4
3706000,0.7,-0.57,-0.45,0.95,-2.55,-0.87,49.69,13.44,23.02,4
3706013,0.7,-0.57,-0.45,1.2,-2.43,-0.77,49.69,13.44,23.02,4
3706024,0.7,-0.57,-0.45,1.53,-2.09,-0.57,49.69,13.44,23.02,4
3706034,0.7,-0.57,-0.45,1.89,-1.92,-0.42,49.69,13.44,23.02,4
3706046,0.69,-0.57,-0.45,2.44,-1.58,-0.22,49.68,13.51,23.07,4
3706057,0.69,-0.57,-0.45,2.44,-1.12,0.05,49.68,13.51,23.07,4
3706068,0.69,-0.57,-0.45,2.33,-0.55,0.49,49.68,13.51,23.07,4
3706079,0.69,-0.57,-0.45,2.3,-0.2,0.9,49.68,13.51,23.07,4
3706091,0.7,-0.57,-0.46,2.49,-0.12,1.01,49.69,13.48,22.89,4
3706103,0.7,-0.57,-0.46,2.34,-0.27,0.72,49.69,13.48,22.89,4
3706116,0.7,-0.57,-0.46,1.29,-1.18,-0.13,49.69,13.48,22.89,4
3706127,0.7,-0.57,-0.45,0.83,-1.55,-0.47,49.69,13.48,22.89,4
3706137,0.7,-0.57,-0.45,0.7,-1.79,-0.7,49.69,13.48,22.89,4
3706149,0.69,-0.57,-0.45,1.33,-1.9,-0.74,49.62,13.49,23.08,4
3706160,0.69,-0.57,-0.45,1.79,-1.58,-0.47,49.62,13.49,23.08,4
3706171,0.69,-0.57,-0.45,2.15,-1.13,-0.07,49.62,13.49,23.08,4
3706185,0.7,-0.57,-0.46,2.21,-0.46,0.56,49.62,13.49,23.08,4
3706196,0.7,-0.57,-0.46,1.87,-0.38,0.61,49.6,13.41,23.15,4
3706208,0.7,-0.57,-0.46,1.36,-0.46,0.48,49.6,13.41,23.15,4
3706219,0.69,-0.57,-0.45,0.57,-0.44,0.31,49.6,13.41,23.15,4
3706231,0.69,-0.57,-0.45,0.63,-0.33,0.4,49.6,13.41,23.15,4
3706242,0.69,-0.57,-0.45,1.06,-0.21,0.57,49.59,13.4,23.07,4
3706254,0.7,-0.57,-0.45,2.41,-0.22,0.88,49.59,13.4,23.07,4
3706265,0.7,-0.57,-0.46,2.76,-0.46,0.79,49.59,13.4,23.07,4
3706279,0.7,-0.57,-0.46,2.28,-1.48,-0.06,49.59,13.4,23.07,4
3706290,0.7,-0.57,-0.46,1.63,-2.02,-0.56,49.54,13.51,23.1,4
3706302,0.69,-0.57,-0.46,0.99,-2.37,-0.93,49.54,13.51,23.1,4
3706314,0.69,-0.57,-0.45,0.42,-2.06,-0.99,49.54,13.51,23.1,4
3706325,0.69,-0.57,-0.45,0.61,-1.62,-0.63,49.54,13.51,23.1,4
3706336,0.69,-0.58,-0.45,1.0,-1.0,-0.13,49.54,13.51,23.1,4
3706348,0.69,-0.57,-0.45,1.98,0.01,0.85,49.49,13.43,23.11,4
3706360,0.7,-0.57,-0.45,2.23,0.28,1.1,49.49,13.43,23.11,4
3706373,0.7,-0.57,-0.46,1.97,-0.08,0.86,49.49,13.43,23.11,4
3706385,0.7,-0.57,-0.46,1.66,-0.51,0.5,49.49,13.43,23.11,4
3706396,0.7,-0.57,-0.46,1.41,-0.93,0.09,49.46,13.4,22.88,4
3706408,0.7,-0.57,-0.45,1.33,-1.82,-0.61,49.46,13.4,22.88,4
3706419,0.7,-0.57,-0.45,1.53,-2.07,-0.77,49.46,13.4,22.88,4
3706432,0.7,-0.57,-0.46,1.83,-2.18,-0.8,49.46,13.4,22.88,4
3706444,0.7,-0.57,-0.46,1.79,-2.28,-0.96,49.39,13.39,22.92,4
3706456,0.69,-0.57,-0.45,1.59,-2.38,-1.1,49.39,13.39,22.92,4
3706467,0.69,-0.57,-0.45,1.2,-2.08,-0.86,49.39,13.39,22.92,4
3706478,0.69,-0.57,-0.45,1.21,-1.75,-0.57,49.39,13.39,22.92,4
3706489,0.69,-0.57,-0.45,1.44,-1.43,-0.25,49.47,13.41,22.89,4
3706502,0.7,-0.57,-0.45,2.07,-0.75,0.4,49.47,13.41,22.89,4
3706513,0.7,-0.57,-0.45,2.26,-0.67,0.54,49.47,13.41,22.89,4
3706523,0.7,-0.57,-0.45,2.32,-0.7,0.54,49.47,13.41,22.89,4
3706535,0.7,-0.57,-0.46,1.94,-1.25,0.13,49.47,13.41,22.89,4
3706547,0.69,-0.57,-0.45,1.66,-1.56,-0.1,49.55,13.5,23.02,4
3706558,0.7,-0.57,-0.45,1.44,-1.76,-0.24,49.55,13.5,23.02,4
3706569,0.7,-0.57,-0.45,1.52,-1.63,0.02,49.55,13.5,23.02,4
3706580,0.7,-0.57,-0.45,1.9,-1.4,0.17,49.55,13.5,23.02,4
3706591,0.7,-0.57,-0.45,2.29,-1.22,0.32,49.5,13.46,23.11,4
3706604,0.7,-0.57,-0.45,2.42,-1.07,0.45,49.5,13.46,23.11,4
3706615,0.7,-0.57,-0.46,2.21,-1.11,0.31,49.5,13.46,23.11,4
3706626,0.7,-0.57,-0.45,1.9,-1.2,0.2,49.5,13.46,23.11,4
3706638,0.7,-0.57,-0.45,1.63,-1.17,0.18,49.62,13.42,23.05,4
3706648,0.7,-0.57,-0.45,1.54,-1.21,0.12,49.62,13.42,23.05,4
3706660,0.7,-0.57,-0.45,1.56,-1.41,0.02,49.62,13.42,23.05,4
3706672,0.7,-0.57,-0.45,1.7,-1.67,-0.16,49.62,13.42,23.05,4
3706683,0.7,-0.57,-0.45,1.69,-1.87,-0.32,49.62,13.42,23.05,4
3706695,0.7,-0.57,-0.45,1.69,-2.1,-0.49,49.63,13.52,23.02,4
3706707,0.7,-0.57,-0.46,1.5,-2.5,-0.77,49.63,13.52,23.02,4
3706718,0.7,-0.57,-0.45,1.25,-2.65,-0.81,49.63,13.52,23.02,4
3706730,0.7,-0.57,-0.45,1.04,-2.6,-0.85,49.63,13.52,23.02,4
3706743,0.7,-0.57,-0.45,1.08,-2.56,-0.9,49.65,13.47,23.22,4
3706754,0.7,-0.57,-0.45,1.3,-2.59,-0.88,49.65,13.47,23.22,4
3706767,0.7,-0.57,-0.45,1.59,-2.16,-0.72,49.65,13.47,23.22,4
3706778,0.69,-0.57,-0.45,1.58,-1.89,-0.54,49.65,13.47,23.22,4
3706789,0.69,-0.57,-0.45,1.65,-1.5,-0.23,49.64,13.48,22.96,4
3706800,0.69,-0.57,-0.45,1.85,-1.01,0.17,49.64,13.48,22.96,4
3706812,0.7,-0.58,-0.45,1.98,-0.33,0.86,49.64,13.48,22.96,4
3706823,0.7,-0.58,-0.45,1.91,-0.34,0.94,49.64,13.48,22.96,4
3706837,0.7,-0.57,-0.45,1.73,-0.69,0.47,49.72,13.47,22.82,4
3706848,0.7,-0.57,-0.45,1.59,-0.98,0.11,49.72,13.47,22.82,4
3706860,0.7,-0.57,-0.45,1.47,-1.29,-0.22,49.72,13.47,22.82,4
3706872,0.69,-0.57,-0.45,1.42,-1.63,-0.55,49.72,13.47,22.82,4
3706884,0.69,-0.57,-0.45,1.63,-1.54,-0.43,49.72,13.47,22.82,4
3706896,0.69,-0.57,-0.45,2.27,-1.15,0.19,49.73,13.52,22.6,4
3706907,0.7,-0.57,-0.45,2.35,-0.95,0.35,49.73,13.52,22.6,4
3706918,0.7,-0.57,-0.45,2.15,-0.87,0.37,49.73,13.52,22.6,4
3706932,0.7,-0.57,-0.45,1.44,-0.56,0.33,49.73,13.52,22.6,4
3706943,0.7,-0.57,-0.45,1.08,-0.51,0.26,49.78,13.56,22.68,4
3706954,0.7,-0.57,-0.45,0.85,-0.6,0.13,49.78,13.56,22.68,4
3706966,0.7,-0.57,-0.45,1.13,-0.92,-0.24,49.78,13.56,22.68,4
3706978,0.7,-0.57,-0.45,1.38,-1.13,-0.28,49.78,13.56,22.68,4
3706989,0.7,-0.57,-0.45,1.59,-1.35,-0.3,49.86,13.43,22.64,4
3707001,0.7,-0.58,-0.45,1.47,-1.8,-0.47,49.86,13.43,22.64,4
3707013,0.7,-0.58,-0.45,1.14,-1.96,-0.63,49.86,13.43,22.64,4
3707026,0.69,-0.57,-0.44,1.14,-1.9,-0.53,49.86,13.43,22.64,4
3707037,0.69,-0.57,-0.44,1.51,-1.66,-0.25,49.85,13.39,22.66,4
3707049,0.69,-0.57,-0.45,1.94,-1.43,0.02,49.85,13.39,22.66,4
3707061,0.7,-0.57,-0.45,2.37,-0.99,0.34,49.85,13.39,22.66,4
3707072,0.7,-0.57,-0.45,2.26,-1.0,0.29,49.85,13.39,22.66,4
3707085,0.7,-0.57,-0.45,1.65,-1.29,-0.05,49.85,13.39,22.66,4
3707097,0.7,-0.57,-0.45,1.44,-1.44,-0.24,49.88,13.38,22.71,4
3707109,0.7,-0.57,-0.45,1.31,-1.56,-0.48,49.88,13.38,22.71,4
3707120,0.7,-0.57,-0.45,1.02,-2.02,-0.76,49.88,13.38,22.71,4
3707132,0.7,-0.57,-0.45,1.09,-2.15,-0.88,49.88,13.38,22.71,4
3707143,0.7,-0.57,-0.45,1.15,-2.3,-1.03,49.79,13.4,22.54,4
3707155,0.7,-0.58,-0.45,1.07,-2.8,-1.39,49.79,13.4,22.54,4
3707167,0.69,-0.58,-0.45,1.07,-2.92,-1.49,49.79,13.4,22.54,4
3707180,0.69,-0.58,-0.45,1.14,-2.29,-1.12,49.79,13.4,22.54,4
3707192,0.69,-0.58,-0.44,1.31,-1.81,-0.63,49.8,13.51,22.47,4
3707202,0.69,-0.58,-0.44,1.63,-1.43,-0.1,49.8,13.51,22.47,4
3707215,0.7,-0.58,-0.45,2.4,-0.74,0.5,49.8,13.51,22.47,4
3707227,0.7,-0.58,-0.45,2.57,-0.78,0.49,49.8,13.51,22.47,4
3707238,0.7,-0.58,-0.45,2.47,-0.85,0.38,49.81,13.64,22.5,4
3707250,0.7,-0.57,-0.45,1.94,-0.73,0.27,49.81,13.64,22.5,4
3707261,0.7,-0.57,-0.45,1.78,-0.89,0.14,49.81,13.64,22.5,4
3707274,0.7,-0.57,-0.45,1.85,-1.37,-0.12,49.81,13.64,22.5,4
3707285,0.7,-0.57,-0.45,1.73,-1.69,-0.27,49.81,13.64,22.5,4
3707296,0.7,-0.57,-0.45,1.55,-1.9,-0.4,49.78,13.58,22.57,4
3707309,0.7,-0.57,-0.45,1.16,-2.16,-0.66,49.78,13.58,22.57,4
3707320,0.7,-0.58,-0.45,1.14,-2.2,-0.66,49.78,13.58,22.57,4
3707331,0.69,-0.58,-0.44,1.19,-2.18,-0.6,49.78,13.58,22.57,4
3707344,0.69,-0.58,-0.44,1.66,-1.77,-0.19,49.82,13.5,22.82,4
3707356,0.69,-0.57,-0.44,1.95,-1.35,0.09,49.82,13.5,22.82,4
3707368,0.69,-0.58,-0.45,2.33,-0.83,0.59,49.82,13.5,22.82,4
3707379,0.7,-0.58,-0.45,2.22,-0.77,0.55,49.82,13.5,22.82,4
3707390,0.7,-0.58,-0.45,1.89,-0.89,0.34,49.69,13.67,22.73,4
3707404,0.7,-0.57,-0.45,1.29,-1.42,-0.11,49.69,13.67,22.73,4
3707416,0.69,-0.57,-0.45,1.1,-1.66,-0.14,49.69,13.67,22.73,4
3707429,0.69,-0.57,-0.45,1.25,-1.19,0.24,49.69,13.67,22.73,4
3707440,0.7,-0.57,-0.45,1.54,-1.02,0.28,49.75,13.8,22.77,4
3707452,0.7,-0.57,-0.45,1.68,-1.28,0.15,49.75,13.8,22.77,4
3707463,0.7,-0.57,-0.45,1.6,-1.54,-0.3,49.75,13.8,22.77,4
3707474,0.7,-0.57,-0.45,1.37,-1.61,-0.41,49.75,13.8,22.77,4
3707487,0.7,-0.57,-0.45,1.12,-1.72,-0.44,49.82,13.77,22.76,4
3707499,0.7,-0.58,-0.45,1.18,-1.97,-0.56,49.82,13.77,22.76,4
3707511,0.7,-0.58,-0.44,1.31,-1.99,-0.66,49.82,13.77,22.76,4
3707521,0.69,-0.58,-0.44,1.37,-1.98,-0.72,49.82,13.77,22.76,4
3707533,0.69,-0.58,-0.44,1.36,-1.51,-0.34,49.82,13.77,22.76,4
3707544,0.69,-0.58,-0.44,1.57,-1.01,0.05,49.73,13.65,22.87,4
3707556,0.7,-0.58,-0.44,1.84,-0.57,0.46,49.73,13.65,22.87,4
3707567,0.7,-0.58,-0.45,2.27,-0.37,0.74,49.73,13.65,22.87,4
3707578,0.7,-0.58,-0.45,2.32,-0.5,0.52,49.73,13.65,22.87,4
3707589,0.69,-0.58,-0.45,2.17,-0.67,0.28,49.75,13.59,22.9,4
3707599,0.69,-0.58,-0.45,1.9,-0.8,0.17,49.75,13.59,22.9,4
3707611,0.69,-0.57,-0.44,1.7,-0.87,0.25,49.75,13.59,22.9,4
3707622,0.69,-0.57,-0.44,1.88,-0.99,0.36,49.75,13.59,22.9,4
3707635,0.7,-0.57,-0.45,2.4,-0.98,0.43,49.72,13.51,22.54,4
3707647,0.7,-0.57,-0.45,2.43,-0.94,0.42,49.72,13.51,22.54,4
3707659,0.7,-0.57,-0.45,2.21,-0.85,0.38,49.72,13.51,22.54,4
3707671,0.7,-0.57,-0.45,1.5,-1.14,0.17,49.72,13.51,22.54,4
3707681,0.7,-0.57,-0.45,1.29,-1.37,-0.04,49.72,13.51,22.54,4
3707692,0.7,-0.57,-0.45,1.17,-1.61,-0.26,49.57,13.52,22.66,4
3707705,0.69,-0.57,-0.45,1.19,-1.81,-0.38,49.57,13.52,22.66,4
3707717,0.7,-0.58,-0.45,1.17,-1.76,-0.27,49.57,13.52,22.66,4
3707731,0.7,-0.58,-0.44,0.96,-1.75,-0.2,49.57,13.52,22.66,4
3707742,0.7,-0.58,-0.44,0.99,-1.66,-0.33,49.45,13.47,22.79,4
3707753,0.7,-0.58,-0.44,1.12,-1.6,-0.43,49.45,13.47,22.79,4
3707765,0.69,-0.58,-0.44,1.6,-1.26,-0.26,49.45,13.47,22.79,4
3707776,0.69,-0.58,-0.44,1.9,-0.97,0.0,49.45,13.47,22.79,4
3707787,0.69,-0.58,-0.44,2.16,-0.7,0.31,49.43,13.47,22.64,4
3707798,0.7,-0.58,-0.45,2.38,-0.49,0.7,49.43,13.47,22.64,4
3707809,0.7,-0.57,-0.45,2.31,-0.53,0.61,49.43,13.47,22.64,4
3707820,0.7,-0.57,-0.45,2.17,-0.72,0.38,49.43,13.47,22.64,4
3707833,0.7,-0.57,-0.45,1.47,-1.3,-0.27,49.43,13.47,22.64,4
3707845,0.7,-0.57,-0.45,1.12,-1.47,-0.49,49.42,13.48,22.95,4
3707856,0.7,-0.57,-0.45,0.87,-1.5,-0.64,49.42,13.48,22.95,4
3707868,0.7,-0.58,-0.44,0.9,-1.84,-0.7,49.42,13.48,22.95,4
3707879,0.69,-0.58,-0.44,1.24,-1.75,-0.56,49.42,13.48,22.95,4
3707890,0.69,-0.58,-0.44,1.66,-1.51,-0.33,49.47,13.62,22.97,4
3707901,0.69,-0.58,-0.44,2.09,-1.26,0.21,49.47,13.62,22.97,4
3707912,0.69,-0.58,-0.45,2.1,-1.12,0.31,49.47,13.62,22.97,4
3707923,0.7,-0.58,-0.45,1.97,-1.09,0.27,49.47,13.62,22.97,4
3707938,0.69,-0.58,-0.45,1.45,-1.23,0.02,49.5,13.58,23.08,4
3707950,0.7,-0.58,-0.45,1.36,-1.24,-0.03,49.5,13.58,23.08,4
3707961,0.7,-0.58,-0.44,1.37,-1.0,0.25,49.5,13.58,23.08,4
3707972,0.7,-0.57,-0.44,1.64,-0.97,0.31,49.5,13.58,23.08,4
3707982,0.7,-0.57,-0.45,1.99,-1.05,0.28,49.5,13.58,23.08,4
3707993,0.7,-0.57,-0.45,2.2,-1.26,0.19,49.46,13.57,23.1,4
3708003,0.7,-0.57,-0.45,1.85,-1.45,-0.07,49.46,13.57,23.1,4
3708015,0.7,-0.58,-0.45,1.53,-1.59,-0.3,49.46,13.57,23.1,4
3708026,0.7,-0.58,-0.45,1.23,-1.8,-0.54,49.46,13.57,23.1,4
3708039,0.69,-0.58,-0.45,1.18,-1.95,-0.71,49.53,13.49,23.21,4
3708051,0.69,-0.58,-0.44,1.3,-1.84,-0.55,49.53,13.49,23.21,4
3708064,0.69,-0.58,-0.44,1.45,-1.62,-0.31,49.53,13.49,23.21,4
3708075,0.69,-0.58,-0.44,1.57,-1.48,-0.24,49.53,13.49,23.21,4
3708086,0.7,-0.58,-0.45,1.7,-1.26,-0.11,49.52,13.5,23.37,4
3708100,0.7,-0.58,-0.45,1.63,-1.15,-0.06,49.52,13.5,23.37,4
3708111,0.7,-0.58,-0.45,1.48,-1.16,-0.09,49.52,13.5,23.37,4
3708124,0.7,-0.58,-0.44,1.46,-1.08,0.02,49.52,13.5,23.37,4
3708136,0.7,-0.58,-0.44,1.5,-1.03,0.1,49.57,13.48,23.35,4
3708148,0.7,-0.58,-0.44,1.57,-1.14,0.1,49.57,13.48,23.35,4
3708160,0.7,-0.57,-0.45,1.79,-1.49,-0.2,49.57,13.48,23.35,4
3708170,0.7,-0.57,-0.45,1.87,-1.65,-0.3,49.57,13.48,23.35,4
3708181,0.69,-0.57,-0.45,1.83,-1.77,-0.36,49.57,13.48,23.35,4
3708195,0.7,-0.58,-0.45,1.61,-1.7,-0.4,49.49,13.49,23.47,4
3708205,0.7,-0.58,-0.45,1.44,-1.74,-0.49,49.49,13.49,23.47,4
3708215,0.7,-0.58,-0.45,1.3,-1.77,-0.57,49.49,13.49,23.47,4
3708228,0.7,-0.58,-0.45,0.92,-2.1,-0.94,49.49,13.49,23.47,4
3708239,0.7,-0.58,-0.44,0.75,-2.27,-1.13,49.48,13.4,23.36,4
3708251,0.69,-0.58,-0.44,0.69,-2.29,-1.21,49.48,13.4,23.36,4
3708263,0.69,-0.58,-0.44,0.81,-2.01,-0.91,49.48,13.4,23.36,4
3708275,0.69,-0.58,-0.44,1.18,-1.8,-0.67,49.48,13.4,23.36,4
3708286,0.69,-0.58,-0.44,1.62,-1.61,-0.41,49.63,13.49,23.25,4
3708298,0.69,-0.58,-0.44,2.13,-0.94,0.22,49.63,13.49,23.25,4
3708309,0.7,-0.58,-0.44,2.11,-0.64,0.42,49.63,13.49,23.25,4
3708322,0.7,-0.58,-0.44,1.91,-0.6,0.44,49.63,13.49,23.25,4
3708332,0.7,-0.58,-0.45,1.8,-0.85,0.18,49.63,13.49,23.25,4
3708343,0.7,-0.58,-0.45,1.68,-1.12,-0.06,49.71,13.5,23.21,4
3708354,0.7,-0.57,-0.45,1.65,-1.33,-0.2,49.71,13.5,23.21,4
3708366,0.7,-0.57,-0.45,1.72,-1.71,-0.32,49.71,13.5,23.21,4
3708378,0.7,-0.58,-0.44,1.79,-1.82,-0.29,49.71,13.5,23.21,4
3708389,0.7,-0.58,-0.44,1.75,-1.93,-0.27,49.72,13.58,23.29,4
3708401,0.7,-0.58,-0.44,1.34,-2.0,-0.38,49.72,13.58,23.29,4
3708411,0.7,-0.58,-0.44,1.14,-1.9,-0.48,49.72,13.58,23.29,4
3708421,0.7,-0.58,-0.44,1.01,-1.9,-0.58,49.72,13.58,23.29,4
3708435,0.7,-0.58,-0.44,0.85,-2.17,-0.88,49.71,13.5,23.29,4
3708447,0.7,-0.58,-0.44,0.92,-2.35,-1.0,49.71,13.5,23.29,4
3708461,0.69,-0.58,-0.44,1.32,-2.17,-0.9,49.71,13.5,23.29,4
3708472,0.69,-0.58,-0.44,1.6,-1.91,-0.58,49.71,13.5,23.29,4
3708483,0.69,-0.58,-0.44,1.85,-1.51,-0.16,49.71,13.5,23.29,4
3708496,0.7,-0.58,-0.44,2.08,-0.87,0.47,49.73,13.56,23.12,4
3708507,0.7,-0.58,-0.44,1.97,-0.72,0.58,49.73,13.56,23.12,4
3708521,0.7,-0.58,-0.44,1.71,-0.66,0.62,49.73,13.56,23.12,4
3708533,0.7,-0.58,-0.44,1.64,-0.75,0.55,49.73,13.56,23.12,4
3708545,0.7,-0.58,-0.44,1.96,-1.0,0.28,49.72,13.61,23.04,4
3708556,0.7,-0.58,-0.44,2.08,-1.09,0.22,49.72,13.61,23.04,4
3708566,0.7,-0.58,-0.44,2.17,-1.07,0.31,49.72,13.61,23.04,4
3708576,0.7,-0.58,-0.44,2.18,-0.88,0.41,49.72,13.61,23.04,4
3708586,0.7,-0.58,-0.44,2.03,-0.74,0.43,49.77,13.7,23.18,4
3708598,0.7,-0.58,-0.45,1.59,-1.13,0.04,49.77,13.7,23.18,4
3708610,0.7,-0.58,-0.45,1.29,-1.27,-0.26,49.77,13.7,23.18,4
3708624,0.7,-0.58,-0.44,0.88,-1.52,-0.45,49.77,13.7,23.18,4
3708635,0.7,-0.58,-0.44,0.95,-1.67,-0.44,49.82,13.7,23.28,4
3708647,0.7,-0.58,-0.44,1.16,-1.88,-0.44,49.82,13.7,23.28,4
3708659,0.69,-0.58,-0.44,1.77,-1.94,-0.42,49.82,13.7,23.28,4
3708670,0.69,-0.58,-0.44,1.85,-1.94,-0.34,49.82,13.7,23.28,4
3708685,0.69,-0.58,-0.44,1.69,-1.67,-0.08,49.79,13.82,22.94,4
3708697,0.7,-0.58,-0.44,1.59,-1.51,0.0,49.79,13.82,22.94,4
3708707,0.7,-0.58,-0.44,1.52,-1.37,0.0,49.79,13.82,22.94,4
3708718,0.7,-0.58,-0.44,1.59,-1.35,-0.14,49.79,13.82,22.94,4
3708729,0.7,-0.58,-0.44,1.58,-1.51,-0.34,49.79,13.82,22.94,4
3708740,0.7,-0.58,-0.44,1.4,-1.74,-0.56,49.69,13.77,23.08,4
3708750,0.7,-0.58,-0.44,1.21,-1.92,-0.73,49.69,13.77,23.08,4
3708762,0.69,-0.58,-0.44,1.24,-1.95,-0.76,49.69,13.77,23.08,4
3708772,0.69,-0.58,-0.44,1.41,-1.92,-0.6,49.69,13.77,23.08,4
3708784,0.7,-0.58,-0.44,1.58,-1.88,-0.4,49.81,13.75,23.06,4
3708795,0.7,-0.58,-0.44,1.72,-1.74,-0.27,49.81,13.75,23.06,4
3708806,0.7,-0.58,-0.44,1.74,-1.71,-0.51,49.81,13.75,23.06,4
3708817,0.69,-0.58,-0.44,1.41,-1.87,-0.67,49.81,13.75,23.06,4
3708828,0.69,-0.58,-0.44,1.04,-1.76,-0.55,49.81,13.75,23.06,4
3708840,0.7,-0.58,-0.44,1.19,-1.74,-0.5,49.81,13.79,23.08,4
3708852,0.7,-0.58,-0.44,1.52,-1.7,-0.45,49.81,13.79,23.08,4
3708864,0.7,-0.58,-0.44,2.02,-1.81,-0.49,49.81,13.79,23.08,4
3708876,0.7,-0.58,-0.44,1.95,-1.87,-0.44,49.81,13.79,23.08,4
3708887,0.69,-0.58,-0.44,1.79,-1.8,-0.34,49.83,13.75,22.96,4
3708899,0.7,-0.58,-0.44,1.69,-1.56,-0.06,49.83,13.75,22.96,4
3708911,0.7,-0.58,-0.44,1.8,-1.37,-0.05,49.83,13.75,22.96,4
3708924,0.7,-0.58,-0.44,1.97,-1.46,-0.24,49.83,13.75,22.96,4
3708936,0.7,-0.58,-0.44,1.82,-1.5,-0.42,49.93,13.77,22.83,4
3708946,0.7,-0.58,-0.44,1.57,-1.48,-0.54,49.93,13.77,22.83,4
3708956,0.7,-0.58,-0.44,1.32,-1.46,-0.57,49.93,13.77,22.83,4
3708967,0.7,-0.58,-0.44,1.24,-1.45,-0.47,49.93,13.77,22.83,4
3708978,0.7,-0.58,-0.44,1.45,-1.54,-0.42,49.93,13.77,22.83,4
3708989,0.69,-0.58,-0.44,1.71,-1.56,-0.4,49.93,13.88,22.81,4
3709000,0.69,-0.58,-0.44,2.07,-1.48,-0.21,49.93,13.88,22.81,4
3709011,0.69,-0.58,-0.44,2.09,-1.4,-0.07,49.93,13.88,22.81,4
3709023,0.7,-0.58,-0.44,2.07,-1.32,-0.0,49.93,13.88,22.81,4
3709033,0.7,-0.58,-0.44,2.03,-1.36,-0.15,49.84,13.9,22.88,4
3709045,0.7,-0.58,-0.44,1.88,-1.55,-0.4,49.84,13.9,22.88,4
3709056,0.7,-0.58,-0.44,1.69,-1.6,-0.53,49.84,13.9,22.88,4
3709067,0.7,-0.58,-0.44,1.62,-1.53,-0.48,49.84,13.9,22.88,4
3709079,0.7,-0.58,-0.44,1.74,-1.56,-0.4,49.84,13.9,22.88,4
3709090,0.7,-0.58,-0.44,1.79,-1.56,-0.35,49.7,13.84,22.93,4
3709100,0.7,-0.58,-0.44,1.66,-1.5,-0.34,49.7,13.84,22.93,4
3709110,0.7,-0.58,-0.44,1.41,-1.44,-0.36,49.7,13.84,22.93,4
3709122,0.7,-0.58,-0.44,0.99,-1.67,-0.45,49.7,13.84,22.93,4
3709134,0.7,-0.58,-0.44,0.99,-1.74,-0.48,49.62,13.83,22.79,4
3709148,0.69,-0.58,-0.44,1.08,-1.81,-0.39,49.62,13.83,22.79,4
3709160,0.69,-0.58,-0.44,1.24,-1.63,-0.25,49.62,13.83,22.79,4
3709170,0.69,-0.58,-0.44,1.45,-1.43,-0.14,49.62,13.83,22.79,4
3709182,0.7,-0.58,-0.44,1.54,-1.33,-0.1,49.62,13.83,22.79,4
3709193,0.69,-0.59,-0.44,1.4,-1.34,-0.16,49.61,13.88,22.82,4
3709203,0.69,-0.59,-0.44,1.19,-1.4,-0.17,49.61,13.88,22.82,4
3709213,0.69,-0.59,-0.43,1.06,-1.43,-0.06,49.61,13.88,22.82,4
3709225,0.69,-0.58,-0.43,1.42,-1.17,0.41,49.61,13.88,22.82,4
3709235,0.69,-0.58,-0.43,1.7,-1.11,0.6,49.66,13.83,22.95,4
3709247,0.7,-0.58,-0.43,1.92,-1.12,0.71,49.66,13.83,22.95,4
3709259,0.7,-0.58,-0.44,2.04,-1.22,0.65,49.66,13.83,22.95,4
3709270,0.7,-0.58,-0.44,1.97,-1.21,0.57,49.66,13.83,22.95,4
3709284,0.7,-0.58,-0.44,1.79,-1.25,0.19,49.58,13.83,22.92,4
3709296,0.7,-0.58,-0.44,1.77,-1.39,-0.04,49.58,13.83,22.92,4
3709306,0.7,-0.58,-0.44,1.7,-1.47,-0.19,49.58,13.83,22.92,4
3709316,0.7,-0.58,-0.44,1.66,-1.48,-0.18,49.58,13.83,22.92,4
3709328,0.7,-0.58,-0.44,1.95,-1.13,0.21,49.58,13.83,22.92,4
3709339,0.7,-0.58,-0.44,2.14,-0.88,0.34,49.59,13.86,22.77,4
3709350,0.7,-0.58,-0.44,2.14,-0.85,0.32,49.59,13.86,22.77,4
3709361,0.7,-0.58,-0.44,1.69,-1.06,-0.05,49.59,13.86,22.77,4
3709372,0.7,-0.58,-0.44,1.43,-1.19,-0.33,49.59,13.86,22.77,4
3709383,0.69,-0.58,-0.44,1.29,-1.25,-0.47,49.63,13.82,22.62,4
3709397,0.69,-0.58,-0.43,1.62,-1.11,-0.44,49.63,13.82,22.62,4
3709408,0.69,-0.58,-0.43,1.88,-1.11,-0.36,49.63,13.82,22.62,4
3709421,0.7,-0.58,-0.44,2.43,-0.94,-0.05,49.63,13.82,22.62,4
3709433,0.7,-0.58,-0.44,2.54,-0.92,0.0,49.67,13.91,22.83,4
3709443,0.7,-0.58,-0.44,2.38,-0.99,-0.11,49.67,13.91,22.83,4
3709453,0.7,-0.58,-0.44,1.98,-1.16,-0.27,49.67,13.91,22.83,4
3709464,0.7,-0.58,-0.44,1.12,-1.43,-0.56,49.67,13.91,22.83,4
3709475,0.7,-0.58,-0.43,0.95,-1.5,-0.63,49.67,13.91,22.83,4
3709486,0.69,-0.58,-0.43,1.01,-1.56,-0.59,49.75,13.95,22.71,4
3709499,0.69,-0.59,-0.43,1.68,-1.35,-0.18,49.75,13.95,22.71,4
3709510,0.69,-0.59,-0.43,1.97,-1.08,0.05,49.75,13.95,22.71,4
3709520,0.69,-0.59,-0.43,2.13,-0.89,0.31,49.75,13.95,22.71,4
3709531,0.69,-0.59,-0.44,2.23,-0.8,0.5,49.75,13.95,22.71,4
3709544,0.69,-0.59,-0.44,2.13,-0.98,0.54,49.76,14.0,22.8,4
3709555,0.69,-0.58,-0.44,1.86,-1.02,0.46,49.76,14.0,22.8,4
3709569,0.69,-0.58,-0.44,1.69,-0.73,0.53,49.76,14.0,22.8,4
3709580,0.7,-0.57,-0.44,1.95,-0.57,0.6,49.76,14.0,22.8,4
3709592,0.7,-0.57,-0.44,2.31,-0.6,0.71,49.74,14.1,23.02,4
3709603,0.7,-0.58,-0.44,2.07,-0.72,0.59,49.74,14.1,23.02,4
3709615,0.7,-0.58,-0.44,1.59,-0.78,0.46,49.74,14.1,23.02,4
3709627,0.7,-0.58,-0.44,0.75,-0.93,0.36,49.74,14.1,23.02,4
3709639,0.7,-0.58,-0.44,0.75,-0.98,0.48,49.75,14.04,22.91,4
3709650,0.69,-0.58,-0.44,0.86,-1.02,0.69,49.75,14.04,22.91,4
3709661,0.69,-0.59,-0.44,1.13,-0.7,1.08,49.75,14.04,22.91,4
3709672,0.69,-0.59,-0.43,1.18,-0.58,1.22,49.75,14.04,22.91,4
3709683,0.69,-0.59,-0.43,1.2,-0.63,1.39,49.74,14.03,22.73,4
3709696,0.69,-0.59,-0.43,1.71,-0.3,1.98,49.74,14.03,22.73,4
3709707,0.69,-0.59,-0.43,2.15,0.02,2.34,49.74,14.03,22.73,4
3709718,0.69,-0.58,-0.43,2.85,0.25,2.62,49.74,14.03,22.73,4
3709732,0.7,-0.57,-0.45,4.31,0.38,2.7,49.83,14.03,22.65,4
3709744,0.7,-0.57,-0.45,4.78,0.3,2.42,49.83,14.03,22.65,4
3709757,0.7,-0.57,-0.47,4.44,-0.58,1.02,49.83,14.03,22.65,4
3709769,0.7,-0.57,-0.47,3.63,-1.26,0.21,49.83,14.03,22.65,4
3709783,0.7,-0.58,-0.47,1.08,-2.42,-1.15,49.87,13.95,22.76,4
3709794,0.7,-0.58,-0.46,0.05,-2.58,-1.45,49.87,13.95,22.76,4
3709806,0.69,-0.58,-0.44,-0.42,-2.36,-1.48,49.87,13.95,22.76,4
3709818,0.69,-0.58,-0.43,0.9,-1.32,-0.44,49.87,13.95,22.76,4
3709829,0.7,-0.58,-0.43,2.23,-0.64,0.33,49.87,13.95,22.76,4
3709840,0.7,-0.58,-0.43,3.38,-0.19,0.96,49.86,13.95,22.73,4
3709852,0.71,-0.57,-0.45,4.37,-0.49,0.66,49.86,13.95,22.73,4
3709863,0.71,-0.57,-0.45,4.03,-1.12,-0.01,49.86,13.95,22.73,4
3709876,0.71,-0.57,-0.45,2.34,-2.4,-1.44,49.86,13.95,22.73,4
3709888,0.7,-0.57,-0.44,1.53,-2.74,-1.85,49.9,13.99,22.74,4
3709899,0.7,-0.57,-0.44,1.07,-2.84,-1.97,49.9,13.99,22.74,4
3709912,0.7,-0.58,-0.43,0.97,-2.2,-1.56,49.9,13.99,22.74,4
3709923,0.7,-0.58,-0.43,1.08,-1.74,-1.19,49.9,13.99,22.74,4
3709934,0.7,-0.58,-0.43,1.1,-1.39,-0.84,49.98,13.92,22.76,4
3709946,0.7,-0.58,-0.43,0.83,-0.88,-0.34,49.98,13.92,22.76,4
3709958,0.7,-0.58,-0.43,0.78,-0.66,-0.13,49.98,13.92,22.76,4
3709968,0.7,-0.58,-0.43,1.0,-0.58,0.02,49.98,13.92,22.76,4
3709978,0.7,-0.58,-0.43,1.36,-0.63,0.12,49.98,13.92,22.76,4
3709990,0.7,-0.58,-0.44,2.05,-0.95,0.06,50.07,13.86,22.86,4
3710002,0.69,-0.58,-0.44,2.17,-1.05,-0.02,50.07,13.86,22.86,4
3710015,0.69,-0.58,-0.44,1.95,-1.24,-0.03,50.07,13.86,22.86,4
3710027,0.69,-0.58,-0.44,1.79,-1.12,0.14,50.07,13.86,22.86,4
3710039,0.69,-0.58,-0.45,1.47,-0.59,0.49,50.04,13.72,22.62,4
3710050,0.69,-0.58,-0.45,1.4,-0.53,0.53,50.04,13.72,22.62,4
3710060,0.69,-0.58,-0.45,1.36,-0.61,0.49,50.04,13.72,22.62,4
3710070,0.69,-0.58,-0.45,1.37,-0.72,0.45,50.04,13.72,22.62,4
3710083,0.69,-0.58,-0.45,1.14,-0.95,0.61,49.9,13.67,22.59,4
3710094,0.69,-0.58,-0.45,1.17,-1.06,0.78,49.9,13.67,22.59,4
3710106,0.69,-0.58,-0.44,1.34,-0.95,0.95,49.9,13.67,22.59,4
3710118,0.7,-0.58,-0.44,1.81,-0.78,1.22,49.9,13.67,22.59,4
3710129,0.7,-0.58,-0.44,1.88,-0.92,1.15,49.9,13.67,22.59,4
3710140,0.7,-0.58,-0.44,1.82,-1.02,1.06,49.83,13.63,22.65,4
3710152,0.7,-0.58,-0.44,1.33,-1.02,0.9,49.83,13.63,22.65,4
3710164,0.7,-0.58,-0.44,1.32,-0.96,0.97,49.83,13.63,22.65,4
3710174,0.7,-0.58,-0.44,1.49,-0.96,1.01,49.83,13.63,22.65,4
3710186,0.7,-0.58,-0.44,2.0,-1.2,0.96,49.77,13.66,23.2,4
3710198,0.7,-0.58,-0.44,2.04,-1.16,0.94,49.77,13.66,23.2,4
3710209,0.7,-0.58,-0.44,1.79,-1.11,0.91,49.77,13.66,23.2,4
3710221,0.7,-0.57,-0.44,1.47,-1.16,0.69,49.77,13.66,23.2,4
3710232,0.7,-0.57,-0.44,1.55,-1.13,0.62,49.67,13.67,23.12,4
3710243,0.7,-0.57,-0.44,1.65,-0.98,0.59,49.67,13.67,23.12,4
3710255,0.7,-0.57,-0.44,1.56,-1.03,0.26,49.67,13.67,23.12,4
3710267,0.7,-0.57,-0.44,1.51,-1.11,0.07,49.67,13.67,23.12,4
3710279,0.7,-0.57,-0.44,1.32,-1.29,-0.06,49.67,13.67,23.12,4
3710291,0.7,-0.58,-0.44,1.41,-1.25,-0.03,49.61,13.68,22.93,4
3710303,0.7,-0.58,-0.44,1.61,-1.04,0.01,49.61,13.68,22.93,4
3710314,0.7,-0.58,-0.44,1.99,-1.07,0.15,49.61,13.68,22.93,4
3710325,0.7,-0.58,-0.44,2.01,-1.06,0.12,49.61,13.68,22.93,4
3710336,0.7,-0.58,-0.44,1.92,-1.04,0.05,49.5,13.78,22.93,4
3710346,0.7,-0.58,-0.44,1.8,-1.08,0.03,49.5,13.78,22.93,4
3710359,0.7,-0.58,-0.44,1.87,-0.9,0.13,49.5,13.78,22.93,4
3710371,0.7,-0.58,-0.44,2.1,-0.81,0.2,49.5,13.78,22.93,4
3710381,0.7,-0.58,-0.44,2.39,-0.71,0.28,49.52,13.71,22.94,4
3710393,0.7,-0.58,-0.44,2.9,-0.81,0.12,49.52,13.71,22.94,4
3710405,0.7,-0.57,-0.45,2.9,-0.83,-0.06,49.52,13.71,22.94,4
3710418,0.7,-0.57,-0.45,2.37,-0.97,-0.32,49.52,13.71,22.94,4
3710431,0.7,-0.57,-0.45,2.12,-1.16,-0.41,49.51,13.67,22.81,4
3710445,0.7,-0.57,-0.44,1.67,-1.45,-0.44,49.51,13.67,22.81,4
3710456,0.7,-0.58,-0.44,1.51,-1.56,-0.48,49.51,13.67,22.81,4
3710470,0.7,-0.58,-0.44,1.38,-1.43,-0.47,49.51,13.67,22.81,4
3710481,0.7,-0.58,-0.44,1.41,-1.36,-0.47,49.58,13.71,22.67,4
3710491,0.7,-0.58,-0.44,1.53,-1.23,-0.48,49.58,13.71,22.67,4
3710501,0.7,-0.58,-0.44,1.69,-1.3,-0.56,49.58,13.71,22.67,4
3710513,0.69,-0.58,-0.44,1.63,-1.72,-0.56,49.58,13.71,22.67,4
3710523,0.69,-0.58,-0.44,1.44,-1.83,-0.42,49.58,13.71,22.67,4
3710534,0.69,-0.58,-0.44,1.21,-1.71,-0.17,49.53,13.71,22.69,4
3710544,0.69,-0.58,-0.43,1.17,-1.38,0.15,49.53,13.71,22.69,4
3710556,0.69,-0.58,-0.43,1.63,-0.86,0.62,49.53,13.71,22.69,4
3710567,0.69,-0.58,-0.44,1.89,-0.51,0.81,49.53,13.71,22.69,4
3710578,0.7,-0.58,-0.44,2.13,-0.09,0.96,49.53,13.71,22.69,4
3710591,0.7,-0.57,-0.45,2.67,-0.14,0.97,49.6,13.7,22.79,4
3710603,0.7,-0.57,-0.46,2.81,-0.58,0.71,49.6,13.7,22.79,4
3710613,0.7,-0.57,-0.46,2.63,-1.05,0.27,49.6,13.7,22.79,4
3710625,0.7,-0.57,-0.45,1.0,-1.97,-0.64,49.6,13.7,22.79,4
3710636,0.7,-0.58,-0.45,0.24,-2.24,-1.0,49.5,13.62,22.93,4
3710646,0.7,-0.58,-0.44,-0.12,-2.35,-1.24,49.5,13.62,22.93,4
3710656,0.69,-0.58,-0.44,-0.19,-2.38,-1.34,49.5,13.62,22.93,4
3710668,0.69,-0.59,-0.43,0.32,-2.29,-1.12,49.5,13.62,22.93,4
3710678,0.69,-0.59,-0.43,0.51,-2.11,-0.86,49.5,13.62,22.93,4
3710689,0.69,-0.59,-0.43,0.64,-1.78,-0.44,49.52,13.7,22.82,4
3710702,0.69,-0.59,-0.42,1.32,-0.85,0.64,49.52,13.7,22.82,4
3710714,0.7,-0.58,-0.43,1.95,-0.4,1.13,49.52,13.7,22.82,4
3710727,0.7,-0.58,-0.44,2.99,-0.05,1.54,49.52,13.7,22.82,4
3710738,0.71,-0.57,-0.44,3.07,-0.11,1.47,49.55,13.61,22.58,4
3710750,0.71,-0.57,-0.44,2.85,-0.25,1.23,49.55,13.61,22.58,4
3710760,0.7,-0.57,-0.45,1.96,-0.86,0.47,49.55,13.61,22.58,4
3710771,0.7,-0.57,-0.45,1.54,-1.16,0.15,49.55,13.61,22.58,4
3710782,0.7,-0.57,-0.45,1.23,-1.27,0.01,49.61,13.57,22.73,4
3710795,0.7,-0.57,-0.44,0.79,-1.18,-0.02,49.61,13.57,22.73,4
3710806,0.7,-0.58,-0.44,0.63,-1.1,0.01,49.61,13.57,22.73,4
3710816,0.7,-0.58,-0.44,0.53,-1.06,0.1,49.61,13.57,22.73,4
3710826,0.7,-0.58,-0.44,0.5,-0.98,0.23,49.61,13.57,22.73,4
3710836,0.7,-0.58,-0.44,0.63,-0.86,0.34,49.58,13.7,22.55,4
3710848,0.7,-0.58,-0.43,0.98,-0.79,0.47,49.58,13.7,22.55,4
3710860,0.69,-0.58,-0.44,1.11,-0.9,0.46,49.58,13.7,22.55,4
3710873,0.7,-0.58,-0.44,1.44,-1.11,0.54,49.58,13.7,22.55,4
3710884,0.7,-0.58,-0.44,1.68,-1.09,0.58,49.67,13.63,22.81,4
3710896,0.7,-0.58,-0.44,1.98,-1.05,0.56,49.67,13.63,22.81,4
3710908,0.7,-0.58,-0.45,2.22,-1.05,0.39,49.67,13.63,22.81,4
3710919,0.69,-0.58,-0.45,2.09,-1.05,0.34,49.67,13.63,22.81,4
3710930,0.7,-0.57,-0.45,1.9,-0.93,0.36,49.73,13.69,22.99,4
3710941,0.7,-0.57,-0.45,1.4,-0.81,0.33,49.73,13.69,22.99,4
3710952,0.7,-0.57,-0.45,1.37,-0.94,0.07,49.73,13.69,22.99,4
3710962,0.7,-0.58,-0.45,1.32,-1.2,-0.3,49.73,13.69,22.99,4
3710972,0.7,-0.58,-0.45,1.13,-1.5,-0.61,49.73,13.69,22.99,4
3710984,0.7,-0.58,-0.44,0.71,-1.89,-0.91,49.71,13.59,23.04,4
3710995,0.69,-0.58,-0.44,0.73,-1.94,-0.93,49.71,13.59,23.04,4
3711005,0.7,-0.58,-0.43,0.93,-1.91,-0.86,49.71,13.59,23.04,4
3711015,0.7,-0.58,-0.43,1.29,-1.84,-0.68,49.71,13.59,23.04,4
3711025,0.7,-0.59,-0.43,1.65,-1.59,-0.46,49.71,13.59,23.04,4
3711038,0.69,-0.58,-0.43,2.05,-1.23,-0.05,49.8,13.61,23.13,4
3711048,0.7,-0.58,-0.44,2.15,-1.08,0.15,49.8,13.61,23.13,4
3711059,0.7,-0.58,-0.44,2.2,-0.87,0.24,49.8,13.61,23.13,4
3711071,0.7,-0.58,-0.44,2.1,-0.82,0.16,49.8,13.61,23.13,4
3711082,0.7,-0.58,-0.44,2.14,-0.91,0.02,49.72,13.61,23.13,4
3711093,0.7,-0.57,-0.44,2.12,-1.05,-0.14,49.72,13.61,23.13,4
3711105,0.7,-0.57,-0.44,2.02,-1.53,-0.46,49.72,13.61,23.13,4
3711117,0.7,-0.57,-0.44,1.93,-1.62,-0.65,49.72,13.61,23.13,4
3711130,0.7,-0.57,-0.44,1.52,-1.74,-0.81,49.71,13.55,23.21,4
3711142,0.7,-0.58,-0.44,1.37,-1.66,-0.74,49.71,13.55,23.21,4
3711154,0.7,-0.58,-0.44,1.24,-1.46,-0.68,49.71,13.55,23.21,4
3711166,0.7,-0.58,-0.44,1.07,-1.34,-0.6,49.71,13.55,23.21,4
3711176,0.7,-0.58,-0.44,1.09,-1.35,-0.6,49.71,13.55,23.21,4
3711187,0.7,-0.58,-0.44,1.1,-1.38,-0.62,49.7,13.47,22.91,4
3711197,0.69,-0.59,-0.44,1.1,-1.46,-0.59,49.7,13.47,22.91,4
3711209,0.69,-0.59,-0.43,1.15,-1.4,-0.44,49.7,13.47,22.91,4
3711219,0.69,-0.59,-0.43,1.39,-1.21,-0.2,49.7,13.47,22.91,4
3711230,0.69,-0.58,-0.43,1.84,-0.96,0.1,49.6,13.58,22.99,4
3711243,0.69,-0.58,-0.44,2.9,-0.89,0.35,49.6,13.58,22.99,4
3711254,0.69,-0.58,-0.44,2.95,-0.9,0.19,49.6,13.58,22.99,4
3711267,0.69,-0.58,-0.45,2.25,-1.05,-0.14,49.6,13.58,22.99,4
3711278,0.7,-0.58,-0.44,1.83,-0.99,-0.19,49.6,13.58,22.99,4
3711289,0.7,-0.58,-0.44,1.62,-0.98,-0.23,49.7,13.59,23.13,4
3711302,0.69,-0.58,-0.44,1.65,-1.08,-0.28,49.7,13.59,23.13,4
3711312,0.69,-0.58,-0.44,1.81,-1.0,-0.08,49.7,13.59,23.13,4
3711324,0.69,-0.58,-0.44,1.98,-0.75,0.21,49.7,13.59,23.13,4
3711336,0.7,-0.58,-0.44,1.99,-0.39,0.61,49.69,13.55,23.19,4
3711347,0.7,-0.58,-0.43,1.86,-0.41,0.58,49.69,13.55,23.19,4
3711357,0.71,-0.58,-0.43,1.72,-0.58,0.52,49.69,13.55,23.19,4
3711367,0.71,-0.58,-0.43,1.64,-0.76,0.5,49.69,13.55,23.19,4
3711381,0.7,-0.58,-0.43,1.75,-1.33,0.36,49.65,13.65,23.31,4
3711392,0.7,-0.57,-0.44,1.8,-1.52,0.31,49.65,13.65,23.31,4
3711406,0.69,-0.58,-0.44,1.84,-1.72,0.18,49.65,13.65,23.31,4
3711417,0.69,-0.58,-0.44,1.86,-1.66,0.24,49.65,13.65,23.31,4
3711431,0.69,-0.58,-0.44,1.96,-1.44,0.39,49.61,13.6,23.41,4
3711443,0.69,-0.58,-0.44,2.1,-1.27,0.4,49.61,13.6,23.41,4
3711454,0.69,-0.58,-0.45,2.18,-1.13,0.28,49.61,13.6,23.41,4
3711466,0.69,-0.58,-0.45,1.78,-1.27,0.05,49.61,13.6,23.41,4
3711477,0.69,-0.58,-0.44,1.45,-1.35,0.04,49.61,13.6,23.41,4
3711488,0.69,-0.58,-0.44,1.28,-1.36,0.07,49.57,13.6,23.41,4
3711499,0.7,-0.58,-0.44,1.55,-1.24,0.22,49.57,13.6,23.41,4
3711510,0.7,-0.58,-0.44,1.85,-1.21,0.31,49.57,13.6,23.41,4
3711521,0.7,-0.58,-0.44,2.16,-1.2,0.35,49.57,13.6,23.41,4
3711533,0.7,-0.58,-0.44,2.43,-1.38,0.24,49.58,13.65,23.37,4
3711544,0.7,-0.58,-0.44,2.43,-1.4,0.16,49.58,13.65,23.37,4
3711556,0.7,-0.58,-0.44,2.37,-1.37,0.02,49.58,13.65,23.37,4
3711566,0.7,-0.57,-0.44,2.25,-1.47,-0.11,49.58,13.65,23.37,4
3711578,0.7,-0.57,-0.44,1.75,-1.93,-0.52,49.58,13.65,23.37,4
3711589,0.7,-0.57,-0.44,1.46,-2.06,-0.74,49.58,13.69,23.06,4
3711599,0.7,-0.58,-0.44,1.24,-2.05,-0.85,49.58,13.69,23.06,4
3711609,0.69,-0.58,-0.44,1.1,-1.89,-0.81,49.58,13.69,23.06,4
3711621,0.7,-0.58,-0.44,1.33,-1.56,-0.25,49.58,13.69,23.06,4
3711632,0.7,-0.58,-0.44,1.54,-1.28,0.09,49.53,13.74,22.87,4
3711643,0.7,-0.58,-0.44,1.7,-0.97,0.32,49.53,13.74,22.87,4
3711655,0.7,-0.58,-0.44,1.58,-1.06,0.03,49.53,13.74,22.87,4
3711666,0.7,-0.58,-0.44,1.42,-1.43,-0.22,49.53,13.74,22.87,4
3711680,0.7,-0.58,-0.44,1.57,-1.7,-0.33,49.54,13.73,22.9,4
3711692,0.7,-0.58,-0.44,1.79,-1.55,-0.16,49.54,13.73,22.9,4
3711702,0.7,-0.58,-0.44,1.96,-1.48,-0.05,49.54,13.73,22.9,4
3711712,0.7,-0.58,-0.44,2.05,-1.52,-0.06,49.54,13.73,22.9,4
3711724,0.69,-0.58,-0.44,1.78,-1.49,-0.24,49.54,13.73,22.9,4
3711735,0.7,-0.58,-0.44,1.38,-1.32,-0.22,49.56,13.68,22.88,4
3711745,0.7,-0.58,-0.44,1.09,-1.02,-0.1,49.56,13.68,22.88,4
3711755,0.7,-0.58,-0.44,0.96,-0.87,-0.11,49.56,13.68,22.88,4
3711767,0.7,-0.58,-0.44,1.14,-1.19,-0.31,49.56,13.68,22.88,4
3711777,0.7,-0.58,-0.44,1.32,-1.38,-0.5,49.56,13.68,22.88,4
3711788,0.7,-0.58,-0.44,1.39,-1.58,-0.63,49.69,13.66,22.75,4
3711798,0.69,-0.58,-0.44,1.34,-1.71,-0.65,49.69,13.66,22.75,4
3711810,0.69,-0.59,-0.43,1.34,-1.69,-0.33,49.69,13.66,22.75,4
3711820,0.69,-0.59,-0.43,1.57,-1.49,-0.01,49.69,13.66,22.75,4
3711831,0.7,-0.59,-0.43,1.94,-1.15,0.3,49.71,13.63,22.8,4
3711844,0.7,-0.58,-0.44,2.6,-0.83,0.48,49.71,13.63,22.8,4
3711856,0.69,-0.58,-0.44,2.55,-1.19,0.07,49.71,13.63,22.8,4
3711866,0.69,-0.58,-0.45,2.26,-1.4,-0.15,49.71,13.63,22.8,4
3711877,0.69,-0.57,-0.45,1.63,-1.15,-0.17,49.71,13.63,22.8,4
3711889,0.7,-0.58,-0.44,1.47,-1.22,-0.15,49.68,13.75,22.8,4
3711899,0.7,-0.58,-0.44,1.48,-1.34,-0.33,49.68,13.75,22.8,4
3711909,0.7,-0.58,-0.44,1.55,-1.5,-0.53,49.68,13.75,22.8,4
3711920,0.69,-0.58,-0.44,1.5,-1.32,-0.34,49.68,13.75,22.8,4
3711932,0.7,-0.58,-0.44,1.36,-1.03,-0.11,49.75,13.76,22.82,4
3711943,0.7,-0.58,-0.44,1.25,-0.94,0.02,49.75,13.76,22.82,4
3711954,0.7,-0.58,-0.44,1.27,-1.24,-0.23,49.75,13.76,22.82,4
3711965,0.7,-0.58,-0.44,1.32,-1.57,-0.35,49.75,13.76,22.82,4
3711977,0.69,-0.58,-0.44,1.38,-1.71,-0.33,49.75,13.76,22.82,4
3711989,0.69,-0.58,-0.44,1.45,-1.76,-0.1,49.73,13.77,22.82,4
3712000,0.69,-0.58,-0.44,1.62,-1.6,0.03,49.73,13.77,22.82,4
3712010,0.7,-0.58,-0.44,1.91,-1.45,0.07,49.73,13.77,22.82,4
3712021,0.7,-0.58,-0.44,2.17,-1.37,0.07,49.73,13.77,22.82,4
3712034,0.7,-0.58,-0.45,2.12,-1.25,0.06,49.74,13.81,22.71,4
3712045,0.7,-0.58,-0.45,1.86,-1.27,-0.06,49.74,13.81,22.71,4
3712059,0.69,-0.58,-0.44,1.41,-1.42,-0.36,49.74,13.81,22.71,4
3712071,0.69,-0.58,-0.44,1.31,-1.5,-0.34,49.74,13.81,22.71,4
3712083,0.69,-0.58,-0.44,1.52,-1.24,-0.08,49.72,13.84,22.7,4
3712094,0.69,-0.58,-0.43,1.75,-1.14,0.01,49.72,13.84,22.7,4
3712105,0.7,-0.58,-0.44,2.01,-1.01,0.12,49.72,13.84,22.7,4
3712119,0.7,-0.58,-0.44,2.39,-0.88,0.22,49.72,13.84,22.7,4
3712130,0.7,-0.58,-0.44,2.27,-1.05,0.06,49.72,13.82,22.63,4
3712141,0.7,-0.58,-0.44,1.95,-1.29,-0.11,49.72,13.82,22.63,4
3712154,0.7,-0.58,-0.44,1.38,-1.48,-0.22,49.72,13.82,22.63,4
3712164,0.69,-0.58,-0.43,1.33,-1.4,-0.07,49.72,13.82,22.63,4
3712174,0.69,-0.58,-0.43,1.48,-1.14,0.22,49.72,13.82,22.63,4
3712185,0.69,-0.58,-0.43,1.75,-0.81,0.57,49.77,13.79,22.58,4
3712196,0.7,-0.58,-0.43,2.27,0.05,1.22,49.77,13.79,22.58,4
3712208,0.7,-0.58,-0.44,2.24,0.28,1.33,49.77,13.79,22.58,4
3712221,0.7,-0.58,-0.44,1.63,0.07,1.09,49.77,13.79,22.58,4
3712232,0.7,-0.58,-0.44,1.23,-0.35,0.83,49.79,13.72,22.6,4
3712244,0.7,-0.58,-0.44,1.03,-0.74,0.6,49.79,13.72,22.6,4
3712255,0.7,-0.58,-0.44,1.16,-1.26,0.03,49.79,13.72,22.6,4
3712266,0.7,-0.58,-0.44,1.26,-1.43,-0.19,49.79,13.72,22.6,4
3712279,0.7,-0.58,-0.44,1.3,-1.42,-0.28,49.89,13.68,22.75,4
3712291,0.69,-0.58,-0.44,1.28,-1.34,-0.31,49.89,13.68,22.75,4
3712301,0.69,-0.58,-0.44,1.21,-1.31,-0.25,49.89,13.68,22.75,4
3712311,0.7,-0.58,-0.44,1.24,-1.19,-0.08,49.89,13.68,22.75,4
3712321,0.7,-0.58,-0.44,1.29,-1.06,0.04,49.89,13.68,22.75,4
3712333,0.7,-0.58,-0.44,1.21,-1.04,0.05,49.71,13.73,22.75,4
3712345,0.69,-0.58,-0.44,1.16,-1.17,-0.06,49.71,13.73,22.75,4
3712358,0.69,-0.58,-0.44,1.38,-1.12,0.03,49.71,13.73,22.75,4
3712369,0.69,-0.58,-0.44,1.68,-1.06,0.17,49.71,13.73,22.75,4
3712379,0.69,-0.58,-0.44,2.01,-1.05,0.32,49.67,13.79,22.74,4
3712392,0.7,-0.58,-0.44,2.28,-1.12,0.31,49.67,13.79,22.74,4
3712403,0.7,-0.58,-0.44,2.14,-1.25,0.16,49.67,13.79,22.74,4
3712414,0.7,-0.58,-0.44,1.98,-1.35,0.0,49.67,13.79,22.74,4
3712429,0.7,-0.58,-0.44,1.69,-1.42,-0.17,49.61,13.79,22.9,4
3712441,0.7,-0.58,-0.44,1.7,-1.53,-0.24,49.61,13.79,22.9,4
3712451,0.7,-0.58,-0.44,1.74,-1.63,-0.29,49.61,13.79,22.9,4
3712463,0.7,-0.58,-0.44,1.69,-1.86,-0.48,49.61,13.79,22.9,4
3712473,0.7,-0.58,-0.44,1.66,-1.92,-0.51,49.61,13.79,22.9,4
3712484,0.7,-0.58,-0.44,1.72,-1.96,-0.54,49.58,13.84,22.94,4
3712494,0.7,-0.58,-0.44,1.73,-2.01,-0.65,49.58,13.84,22.94,4
3712506,0.7,-0.58,-0.44,1.46,-1.91,-0.75,49.58,13.84,22.94,4
3712516,0.7,-0.58,-0.44,1.34,-1.76,-0.67,49.58,13.84,22.94,4
3712526,0.69,-0.58,-0.43,1.32,-1.66,-0.56,49.58,13.84,22.94,4
3712537,0.69,-0.58,-0.43,1.5,-1.48,-0.31,49.54,13.73,23.18,4
3712549,0.69,-0.58,-0.43,1.98,-1.04,0.28,49.54,13.73,23.18,4
3712560,0.69,-0.58,-0.44,2.11,-0.89,0.6,49.54,13.73,23.18,4
3712571,0.69,-0.58,-0.44,2.09,-0.84,0.9,49.54,13.73,23.18,4
3712583,0.7,-0.58,-0.44,2.11,-0.15,1.29,49.66,13.68,22.91,4
3712595,0.7,-0.58,-0.44,2.19,-0.03,1.37,49.66,13.68,22.91,4
3712609,0.7,-0.58,-0.44,2.34,0.06,1.31,49.66,13.68,22.91,4
3712620,0.7,-0.58,-0.44,2.41,0.02,1.22,49.66,13.68,22.91,4
3712631,0.7,-0.58,-0.44,2.33,-0.09,0.99,49.68,13.7,22.9,4
3712643,0.7,-0.58,-0.44,1.95,-0.7,0.29,49.68,13.7,22.9,4
3712655,0.7,-0.58,-0.44,1.73,-1.03,0.01,49.68,13.7,22.9,4
3712668,0.7,-0.58,-0.44,1.56,-1.64,-0.33,49.68,13.7,22.9,4
3712679,0.7,-0.58,-0.44,1.61,-1.83,-0.36,49.6,13.65,23.07,4
3712691,0.69,-0.58,-0.44,1.73,-1.89,-0.34,49.6,13.65,23.07,4
3712703,0.69,-0.58,-0.44,1.9,-1.47,-0.15,49.6,13.65,23.07,4
3712715,0.69,-0.58,-0.44,1.9,-1.31,0.03,49.6,13.65,23.07,4
3712729,0.7,-0.58,-0.44,2.13,-0.79,0.5,49.65,13.65,23.01,4
3712741,0.7,-0.58,-0.44,2.17,-0.75,0.53,49.65,13.65,23.01,4
3712755,0.7,-0.58,-0.44,1.93,-0.94,0.29,49.65,13.65,23.01,4
3712765,0.7,-0.58,-0.44,1.65,-1.0,0.24,49.65,13.65,23.01,4
3712775,0.7,-0.58,-0.44,1.39,-1.04,0.27,49.65,13.65,23.01,4
3712786,0.7,-0.58,-0.44,1.37,-1.13,0.25,49.66,13.65,23.02,4
3712798,0.7,-0.58,-0.44,1.58,-1.46,-0.02,49.66,13.65,23.02,4
3712808,0.7,-0.58,-0.44,1.55,-1.76,-0.24,49.66,13.65,23.02,4
3712819,0.7,-0.58,-0.44,1.35,-1.9,-0.4,49.66,13.65,23.02,4
3712832,0.7,-0.58,-0.44,0.99,-1.88,-0.36,49.76,13.69,22.87,4
3712844,0.7,-0.58,-0.44,1.07,-1.84,-0.3,49.76,13.69,22.87,4
3712858,0.7,-0.58,-0.44,1.66,-1.69,-0.23,49.76,13.69,22.87,4
3712870,0.69,-0.58,-0.44,1.95,-1.57,-0.14,49.76,13.69,22.87,4
3712883,0.69,-0.58,-0.44,2.02,-1.32,0.1,49.75,13.7,23.0,4
3712894,0.7,-0.58,-0.44,1.9,-1.11,0.24,49.75,13.7,23.0,4
3712907,0.7,-0.58,-0.44,1.75,-1.17,0.27,49.75,13.7,23.0,4
3712918,0.7,-0.58,-0.44,1.65,-1.37,0.16,49.75,13.7,23.0,4
3712929,0.7,-0.58,-0.44,1.43,-1.5,0.05,49.8,13.69,23.0,4
3712941,0.7,-0.58,-0.44,1.03,-1.59,0.04,49.8,13.69,23.0,4
3712953,0.7,-0.58,-0.44,1.07,-1.61,0.01,49.8,13.69,23.0,4
3712963,0.7,-0.58,-0.44,1.31,-1.67,0.06,49.8,13.69,23.0,4
3712973,0.7,-0.58,-0.44,1.59,-1.6,0.21,49.8,13.69,23.0,4
3712985,0.7,-0.58,-0.44,2.22,-1.21,0.61,49.85,13.68,23.07,4
3712996,0.69,-0.58,-0.44,2.37,-1.05,0.72,49.85,13.68,23.07,4
3713006,0.69,-0.58,-0.44,2.3,-1.08,0.69,49.85,13.68,23.07,4
3713016,0.69,-0.58,-0.44,2.13,-1.03,0.63,49.85,13.68,23.07,4
3713027,0.69,-0.58,-0.44,1.93,-0.89,0.63,49.93,13.62,23.3,4
3713037,0.69,-0.58,-0.44,1.69,-1.02,0.73,49.93,13.62,23.3,4
3713048,0.7,-0.58,-0.44,1.49,-1.16,0.92,49.93,13.62,23.3,4
3713058,0.7,-0.58,-0.44,1.69,-1.04,0.99,49.93,13.62,23.3,4
3713068,0.7,-0.58,-0.44,1.89,-1.04,1.03,49.93,13.62,23.3,4
3713081,0.71,-0.58,-0.44,2.19,-0.99,0.79,49.87,13.58,23.34,4
